time_s,acc_x,acc_y,acc_z,gyro_x,gyro_y,gyro_z
0.0,1.0407,-2.4813,9.4029,0.0142,0.0107,0.0071
0.02,0.9889,-2.598,9.3245,0.0018,0.0013,0.0009
0.04,1.0135,-2.4409,9.3287,0.002,0.0015,0.001
0.06,0.9303,-2.5756,9.2059,-0.0066,-0.0049,-0.0033
0.08,0.9306,-2.65,9.0774,-0.0163,-0.0122,-0.0082
0.1,0.9732,-2.4541,9.3244,0.0137,0.0103,0.0068
0.12,1.0394,-2.5115,9.5075,0.0332,0.0249,0.0166
0.14,0.9649,-2.4995,9.2868,0.0072,0.0054,0.0036
0.16,1.0105,-2.5808,9.4845,0.0186,0.0139,0.0093
0.18,1.0252,-2.5364,9.2729,0.0,0.0,0.0
0.2,0.8613,-2.5907,9.1444,-0.0238,-0.0178,-0.0119
0.22,0.9562,-2.5444,9.2197,-0.001,-0.0008,-0.0005
0.24,0.9801,-2.5732,9.229,-0.0001,-0.0001,-0.0001
0.26,0.9708,-2.5815,9.244,-0.0042,-0.0032,-0.0021
0.28,0.8954,-2.5708,9.2688,0.0016,0.0012,0.0008
0.3,1.1626,-2.4847,9.5135,0.0254,0.0191,0.0127
0.32,0.9188,-2.5558,9.2791,0.0042,0.0031,0.0021
0.34,0.8641,-2.6247,9.1263,-0.0155,-0.0116,-0.0078
0.36,1.1863,-2.4769,9.5116,0.0299,0.0224,0.015
0.38,0.8614,-2.6008,9.2857,-0.0015,-0.0011,-0.0007
0.4,1.12,-2.5144,9.3587,0.0126,0.0094,0.0063
0.42,0.9617,-2.6417,9.2966,0.0009,0.0007,0.0005
0.44,1.0178,-2.5016,9.3512,0.014,0.0105,0.007
0.46,0.9877,-2.5646,9.2405,-0.0039,-0.0029,-0.002
0.48,1.1034,-2.4367,9.463,0.0254,0.0191,0.0127
0.5,1.1442,-2.4986,9.4774,0.0213,0.0159,0.0106
0.52,0.914,-2.556,9.1564,-0.0129,-0.0097,-0.0065
0.54,1.0088,-2.5071,9.3058,0.0073,0.0055,0.0036
0.56,1.0203,-2.562,9.252,-0.0002,-0.0001,-0.0001
0.58,0.7839,-2.6127,9.1217,-0.018,-0.0135,-0.009
0.6,0.8737,-2.4485,9.3972,0.0122,0.0092,0.0061
0.62,0.8193,-2.5412,9.2197,-0.0088,-0.0066,-0.0044
0.64,0.9873,-2.5367,9.3505,0.0051,0.0038,0.0026
0.66,0.9394,-2.5489,9.1224,-0.0108,-0.0081,-0.0054
0.68,0.9752,-2.6014,9.1484,-0.0084,-0.0063,-0.0042
0.7,0.899,-2.7313,9.2181,-0.013,-0.0097,-0.0065
0.72,0.8071,-2.6273,9.0046,-0.0275,-0.0206,-0.0137
0.74,0.9077,-2.6014,9.1274,-0.0186,-0.0139,-0.0093
0.76,0.9669,-2.583,9.2244,0.0049,0.0037,0.0025
0.78,0.9159,-2.4489,9.3685,0.0042,0.0032,0.0021
0.8,1.0667,-2.5562,9.388,0.0073,0.0055,0.0036
0.82,0.9746,-2.6183,9.2562,-0.0033,-0.0025,-0.0016
0.84,0.9857,-2.5468,9.1349,-0.0048,-0.0036,-0.0024
0.86,1.1961,-2.4699,9.6072,0.0373,0.028,0.0187
0.88,0.9793,-2.5694,9.4409,0.016,0.012,0.008
0.9,0.8298,-2.5565,9.1223,-0.0157,-0.0118,-0.0079
0.92,0.9944,-2.6869,9.2486,-0.0034,-0.0026,-0.0017
0.94,1.044,-2.5923,9.2602,0.0033,0.0025,0.0017
0.96,1.1152,-2.5237,9.4329,0.0263,0.0197,0.0131
0.98,1.0202,-2.5482,9.2736,-0.0033,-0.0024,-0.0016
1.0,0.9999,-2.5563,9.3397,0.0071,0.0053,0.0035
1.02,1.0646,-2.551,9.3049,0.0102,0.0076,0.0051
1.04,0.8843,-2.5742,9.1335,-0.0181,-0.0136,-0.009
1.06,1.0565,-2.4536,9.4281,0.0184,0.0138,0.0092
1.08,1.0527,-2.562,9.3844,0.0103,0.0077,0.0052
1.1,0.9968,-2.6329,9.2075,-0.0057,-0.0042,-0.0028
1.12,0.9741,-2.5818,9.2895,0.0081,0.0061,0.004
1.14,1.0139,-2.6486,9.367,0.0113,0.0085,0.0057
1.16,1.0484,-2.3834,9.3765,0.0187,0.014,0.0093
1.18,0.9755,-2.5995,9.3335,0.006,0.0045,0.003
1.2,0.9476,-2.5942,9.2243,-0.0017,-0.0012,-0.0008
1.22,1.0602,-2.6542,9.3536,0.0093,0.0069,0.0046
1.24,1.0509,-2.525,9.4279,0.0098,0.0074,0.0049
1.26,1.0254,-2.4974,9.507,0.0289,0.0217,0.0145
1.28,0.8955,-2.6026,9.0746,-0.0262,-0.0197,-0.0131
1.3,1.1598,-2.6201,9.4775,0.0165,0.0124,0.0082
1.32,0.73,-2.53,8.8775,-0.0349,-0.0262,-0.0174
1.34,0.853,-2.5705,9.167,-0.0183,-0.0137,-0.0092
1.36,0.842,-2.5508,9.2867,-0.0013,-0.001,-0.0007
1.38,1.0765,-2.5024,9.335,0.0086,0.0064,0.0043
1.4,0.8481,-2.6135,9.1907,-0.0052,-0.0039,-0.0026
1.42,1.1249,-2.4535,9.4647,0.0206,0.0155,0.0103
1.44,1.1085,-2.4832,9.4456,0.0206,0.0154,0.0103
1.46,0.8535,-2.5997,9.013,-0.0247,-0.0185,-0.0124
1.48,0.93,-2.5762,9.0775,-0.0193,-0.0145,-0.0096
1.5,1.0185,-2.5969,9.199,-0.0013,-0.001,-0.0006
1.52,1.1239,-2.4991,9.4249,0.0215,0.0162,0.0108
1.54,1.0054,-2.4851,9.3479,0.0061,0.0046,0.003
1.56,0.9863,-2.5743,9.126,-0.0077,-0.0058,-0.0038
1.58,1.0041,-2.6564,9.3078,-0.001,-0.0008,-0.0005
1.6,0.9543,-2.5903,9.3401,0.0014,0.0011,0.0007
1.62,1.0373,-2.5052,9.3408,0.0065,0.0049,0.0033
1.64,0.9088,-2.6225,9.0643,-0.0134,-0.0101,-0.0067
1.66,1.0563,-2.474,9.3704,0.0087,0.0065,0.0043
1.68,0.8546,-2.664,9.0978,-0.0228,-0.0171,-0.0114
1.7,0.905,-2.6495,9.2179,-0.0065,-0.0049,-0.0033
1.72,0.8329,-2.6857,9.1673,-0.014,-0.0105,-0.007
1.74,0.8282,-2.5956,9.1075,-0.0191,-0.0143,-0.0095
1.76,0.8612,-2.6498,9.1261,-0.012,-0.009,-0.006
1.78,0.894,-2.596,9.1178,-0.0201,-0.015,-0.01
1.8,0.9139,-2.6594,9.1993,-0.0062,-0.0047,-0.0031
1.82,0.8472,-2.6742,9.1808,-0.0077,-0.0058,-0.0038
1.84,0.8649,-2.5611,9.2235,-0.0043,-0.0032,-0.0021
1.86,0.8719,-2.5729,9.1437,-0.0069,-0.0052,-0.0034
1.88,0.9838,-2.5392,9.3434,0.0042,0.0032,0.0021
1.9,0.9975,-2.5549,9.4674,0.0194,0.0145,0.0097
1.92,1.049,-2.591,9.4684,0.0223,0.0167,0.0112
1.94,1.1535,-2.4894,9.5738,0.0306,0.023,0.0153
1.96,0.9201,-2.7009,9.1929,-0.0102,-0.0076,-0.0051
1.98,0.8793,-2.4814,9.4344,0.0096,0.0072,0.0048
2.0,1.0736,-2.5455,9.3018,0.0064,0.0048,0.0032
2.02,0.9935,-2.597,9.2816,0.0042,0.0031,0.0021
2.04,1.0399,-2.5934,9.3574,0.0099,0.0074,0.0049
2.06,1.0937,-2.4737,9.4447,0.0207,0.0155,0.0104
2.08,0.9059,-2.6031,9.1883,-0.0113,-0.0085,-0.0057
2.1,0.9727,-2.5525,9.2885,0.0077,0.0058,0.0039
2.12,0.9593,-2.5888,9.1475,-0.0089,-0.0067,-0.0044
2.14,0.8755,-2.6611,9.212,-0.0083,-0.0063,-0.0042
2.16,0.9112,-2.4946,9.2796,-0.0039,-0.0029,-0.0019
2.18,0.8492,-2.5678,9.1793,-0.0094,-0.007,-0.0047
2.2,0.8263,-2.6307,9.2243,-0.0167,-0.0126,-0.0084
2.22,0.9055,-2.6167,9.2077,-0.0021,-0.0016,-0.0011
2.24,0.9982,-2.5162,9.2529,-0.0004,-0.0003,-0.0002
2.26,0.9813,-2.5882,9.2656,0.0012,0.0009,0.0006
2.28,0.8752,-2.5966,9.1779,-0.0126,-0.0095,-0.0063
2.3,0.9605,-2.6674,9.3872,0.007,0.0053,0.0035
2.32,1.0674,-2.5038,9.5013,0.0229,0.0172,0.0115
2.34,1.0242,-2.5713,9.3363,0.0075,0.0056,0.0037
2.36,0.9226,-2.6571,9.1941,-0.0054,-0.0041,-0.0027
2.38,0.9151,-2.6327,9.1007,-0.0163,-0.0122,-0.0082
2.4,1.0533,-2.4706,9.2932,0.0098,0.0073,0.0049
2.42,0.7479,-2.6693,9.085,-0.0274,-0.0203,-0.0136
2.44,1.0371,-2.529,9.411,0.0191,0.0131,0.009
2.46,0.9318,-2.718,9.2466,-0.0019,-0.0012,-0.0032
2.48,0.8989,-2.7004,9.0426,-0.0189,-0.0139,-0.012
2.5,0.8647,-2.6042,9.105,-0.0183,-0.0127,-0.0097
2.52,0.9535,-2.5311,9.2349,-0.0057,-0.0049,-0.0042
2.54,0.9185,-2.6099,9.3107,0.0036,0.0043,-0.0008
2.56,0.9497,-2.6529,9.2043,-0.0148,-0.0103,-0.0041
2.58,0.9123,-2.6802,9.2086,-0.007,-0.0053,-0.0059
2.6,0.8466,-2.59,9.1817,-0.0133,-0.0112,-0.0067
2.62,0.8647,-2.582,9.2052,-0.0032,-0.002,-0.0008
2.64,0.9292,-2.5444,9.1455,-0.0196,0.0062,-0.0097
2.66,0.8624,-2.5762,9.0961,-0.0131,-0.0066,0.0015
2.68,0.8699,-2.6613,9.2309,-0.0059,-0.0089,-0.0037
2.7,1.1138,-2.578,9.6328,0.0348,0.0291,0.0112
2.72,0.9092,-2.6859,9.3318,-0.0077,0.0035,-0.0033
2.74,1.1831,-2.4343,9.5388,0.0285,0.021,0.0043
2.76,0.9091,-2.604,9.2674,-0.0094,-0.0055,-0.0024
2.78,0.781,-2.7796,8.9311,-0.0289,-0.0291,-0.0193
2.8,0.8521,-2.6088,9.06,-0.0239,-0.0127,-0.019
2.82,0.9286,-2.6869,9.2759,0.0106,0.0,-0.0102
2.84,1.114,-2.4135,9.4852,0.0358,0.0175,0.0159
2.86,0.7615,-2.7451,8.9873,-0.0188,-0.0378,-0.0272
2.88,0.9401,-2.55,9.2991,0.0044,0.0208,0.019
2.9,1.0023,-2.4542,9.4143,0.0158,0.0179,-0.0035
2.92,0.8795,-2.7292,9.6039,0.0165,0.0219,-0.0149
2.94,0.9744,-2.5719,9.3665,0.0233,0.0084,0.0127
2.96,0.9568,-2.4981,9.3972,0.0241,-0.0066,0.009
2.98,0.976,-2.6018,9.4299,0.0035,-0.0026,0.0183
3.0,0.8737,-2.6866,9.1735,-0.0029,-0.0115,-0.0013
3.02,0.9616,-2.3257,9.4818,0.0231,0.0132,0.0113
3.04,0.8945,-2.6392,9.2052,-0.0227,-0.0244,0.0072
3.06,1.0112,-2.6728,9.0495,-0.0163,-0.0255,-0.0007
3.08,0.8286,-2.6248,9.2759,0.0003,0.0179,0.0046
3.1,1.0518,-2.6163,9.2085,-0.0117,-0.0089,-0.0118
3.12,1.0861,-2.6002,9.5345,0.0269,0.0065,-0.0177
3.14,0.9129,-2.6728,9.2239,-0.0004,0.0163,0.0019
3.16,0.9227,-2.6157,9.1742,0.0079,-0.0043,-0.0131
3.18,1.057,-2.441,9.3118,-0.0119,-0.0114,0.0037
3.2,0.538,-2.6266,9.0326,-0.0251,-0.031,-0.0161
3.22,0.9672,-2.5125,9.7989,0.0298,-0.002,0.0401
3.24,1.0589,-2.5544,9.2524,0.0674,0.0256,0.0307
3.26,0.9996,-2.6265,9.1561,0.1133,0.1142,0.015
3.28,1.0453,-2.3594,9.0003,0.1619,0.209,-0.0254
3.3,0.6423,-2.7205,8.8525,0.0442,0.0904,-0.0062
3.32,0.8201,-2.6937,8.6855,-0.1562,-0.2384,-0.0839
3.34,0.6652,-2.6392,8.6288,-0.3632,-0.5143,-0.1081
3.36,0.435,-2.6055,8.9763,-0.4768,-0.2748,-0.0844
3.38,0.5036,-2.2558,10.4782,-0.3446,0.3398,-0.042
3.4,0.815,-2.7539,11.7209,-0.0754,0.7657,0.0144
3.42,0.9936,-2.76,10.1259,0.3026,0.4825,0.0738
3.44,1.7066,-2.5104,9.1063,0.5198,-0.1603,0.0957
3.46,1.4463,-2.7105,8.649,0.4301,-0.5482,0.096
3.48,1.0121,-2.7398,8.3427,0.2098,-0.3542,0.0801
3.5,0.5987,-2.7157,8.5117,-0.0217,0.0262,0.0228
3.52,0.5586,-2.6531,8.9496,-0.1068,0.2229,-0.0127
3.54,0.9677,-2.6882,9.1197,-0.1341,0.1798,-0.0212
3.56,0.7032,-2.5589,8.9339,-0.1016,0.0137,-0.0265
3.58,0.6741,-2.6639,8.9887,-0.0448,-0.072,-0.017
3.6,1.0101,-2.5382,9.1639,0.0348,0.0149,0.0087
3.62,0.6435,-2.5305,8.8391,-0.008,-0.014,0.0033
3.64,0.9914,-2.5365,9.2947,0.0032,0.0241,-0.0131
3.66,0.9376,-2.5671,9.3912,-0.0048,-0.0271,-0.0112
3.68,0.85,-2.5511,9.3496,-0.0085,-0.0849,-0.0547
3.7,1.0115,-2.575,9.0611,0.0618,0.0131,-0.0097
3.72,0.9373,-2.5669,8.7194,0.1351,0.1322,-0.0166
3.74,1.0756,-2.5576,8.6569,0.124,0.2552,-0.0074
3.76,0.8852,-2.4743,8.6411,0.0752,0.1152,0.0396
3.78,0.9332,-2.3998,8.6956,-0.198,-0.3469,0.0599
3.8,0.3929,-2.4755,8.3444,-0.4639,-0.6309,0.1009
3.82,0.3512,-2.6533,8.9357,-0.5083,-0.309,0.1529
3.84,0.3974,-2.6749,10.5739,-0.4029,0.4228,0.1014
3.86,0.7194,-2.8795,11.7956,-0.0526,0.833,-0.0152
3.88,1.1203,-2.6754,10.4832,0.3855,0.4981,-0.0655
3.9,1.6261,-2.842,9.0012,0.5403,-0.2714,-0.1623
3.92,1.2763,-2.4861,8.5413,0.4885,-0.589,-0.1571
3.94,1.2023,-2.6544,8.7167,0.2051,-0.4244,-0.053
3.96,1.0468,-2.4525,8.464,-0.0127,0.0725,-0.0291
3.98,0.9344,-2.4445,8.8586,-0.1223,0.253,0.0254
4.0,0.8979,-2.3182,9.321,-0.133,0.1824,0.005
4.02,0.7106,-2.4275,9.413,-0.0644,0.0157,0.0254
4.04,0.9596,-2.7101,9.4457,0.005,-0.0262,0.0177
4.06,0.7914,-2.803,9.217,-0.0094,-0.034,0.018
4.08,0.9767,-2.5159,9.3122,-0.0159,0.0288,0.008
4.1,1.0224,-2.3719,9.1471,0.0296,-0.0157,0.0438
4.12,0.8653,-2.5894,9.5157,0.0164,-0.0381,0.0206
4.14,1.1739,-2.6408,9.688,0.0574,-0.0065,0.0257
4.16,0.8398,-2.4286,9.5655,0.0505,-0.0287,0.0487
4.18,1.2359,-2.6766,9.1419,0.1474,0.1176,0.0173
4.2,1.1522,-2.555,8.9808,0.189,0.2601,0.0165
4.22,0.9216,-2.4668,8.6787,0.1055,0.186,-0.0508
4.24,1.0024,-2.5039,8.8277,-0.1341,-0.2039,-0.0926
4.26,0.6367,-2.7305,8.4638,-0.4074,-0.6541,-0.139
4.28,0.2094,-2.5838,8.631,-0.615,-0.5034,-0.1642
4.3,0.3187,-2.2855,10.5762,-0.4785,0.267,-0.1333
4.32,0.7594,-2.4108,12.0223,-0.1246,0.8744,-0.0351
4.34,1.2139,-2.3003,11.3999,0.2635,0.7561,0.0836
4.36,1.7991,-2.2901,9.89,0.5748,-0.028,0.1389
4.38,1.5293,-2.309,8.9588,0.5888,-0.6315,0.1827
4.4,1.2392,-2.6949,8.5526,0.3114,-0.5405,0.1335
4.42,1.0123,-2.5345,8.7657,0.061,-0.0365,0.0323
4.44,0.9946,-2.6882,8.8646,-0.1186,0.2583,-0.0178
4.46,0.999,-2.6756,9.2037,-0.1439,0.2454,-0.0128
4.48,0.8615,-2.4648,9.3031,-0.0756,0.0901,-0.0197
4.5,0.8845,-2.6088,9.2446,-0.0369,-0.013,-0.0252
4.52,1.0742,-2.4332,9.4269,-0.0272,-0.0592,0.0111
4.54,1.1887,-2.453,9.6706,0.0121,0.0108,-0.0192
4.56,0.9568,-2.4896,9.3959,-0.028,-0.0283,0.0038
4.58,0.9874,-2.5131,9.6503,0.0466,-0.0575,-0.0213
4.6,0.7612,-2.6433,9.237,0.06,0.0219,-0.0316
4.62,1.1492,-2.4973,9.1818,0.1387,0.1634,-0.0433
4.64,0.9627,-2.6472,9.0192,0.13,0.2378,0.0039
4.66,0.8649,-2.5185,8.6544,0.0626,0.0584,0.0528
4.68,0.933,-2.5087,8.647,-0.1694,-0.3558,0.0822
4.7,0.5961,-2.5372,8.693,-0.4123,-0.5708,0.1028
4.72,0.2516,-2.5303,8.8408,-0.4896,-0.2851,0.096
4.74,0.3169,-3.0919,10.2687,-0.3414,0.3877,0.0848
4.76,0.9692,-2.5305,12.5442,0.0277,0.7788,0.0094
4.78,1.4617,-2.6127,10.6945,0.3561,0.4945,-0.0634
4.8,1.4912,-2.5889,9.3369,0.4891,-0.2426,-0.1156
4.82,1.1072,-2.4319,8.7737,0.3998,-0.5736,-0.146
4.84,1.1553,-2.5132,8.4512,0.1886,-0.3803,-0.0924
4.86,1.1043,-2.5714,8.7082,-0.0295,0.04,-0.0209
4.88,0.7803,-2.1777,8.9545,-0.1059,0.2399,0.0161
4.9,0.7076,-2.6727,9.1435,-0.0995,0.1497,0.0115
4.92,0.9242,-2.5551,9.2629,-0.0672,-0.0001,0.0273
4.94,1.0993,-2.6391,9.3981,0.0166,-0.0137,0.0256
4.96,0.8264,-2.5447,9.4371,-0.0077,-0.0035,0.0181
4.98,1.3641,-2.4747,9.3748,0.0237,0.0212,0.0405
5.0,1.1697,-2.6873,9.6318,0.0223,-0.0008,0.0047
5.02,0.9171,-2.822,9.2718,0.0142,-0.0487,-0.0139
5.04,1.245,-2.5735,9.4356,0.0913,0.0013,0.0173
5.06,0.9379,-2.5208,8.9375,0.1477,0.1298,0.0029
5.08,1.07,-2.5505,8.995,0.1726,0.2744,0.0281
5.1,0.6615,-2.7405,8.7169,0.0412,0.12,-0.0114
5.12,0.7989,-2.691,8.3893,-0.1632,-0.3904,-0.1179
5.14,0.7038,-2.556,8.0758,-0.5211,-0.6748,-0.147
5.16,0.1041,-2.4041,8.7604,-0.5854,-0.4125,-0.1628
5.18,0.0361,-2.3787,10.3248,-0.4639,0.4249,-0.1
5.2,0.7961,-2.1785,12.3015,-0.018,0.9443,0.0451
5.22,1.6927,-2.0514,11.4964,0.3954,0.6298,0.0875
5.24,1.6565,-2.1496,9.2826,0.6238,-0.1822,0.1591
5.26,1.238,-2.4521,8.4435,0.549,-0.6875,0.1852
5.28,0.9307,-2.8137,8.5359,0.2922,-0.4717,0.1232
5.3,0.9725,-2.7504,8.615,0.0112,0.0362,0.0485
5.32,0.7196,-2.8547,8.7532,-0.1484,0.2835,-0.011
5.34,0.6588,-2.676,8.9367,-0.1351,0.1911,-0.0127
5.36,0.7662,-2.6781,9.201,-0.1006,0.0275,-0.0025
5.38,0.8031,-2.5148,9.4737,-0.0341,-0.0542,-0.0171
5.4,0.9686,-2.6427,9.425,0.0047,-0.0408,-0.0454
5.42,1.0633,-2.4634,9.3885,0.0176,0.0137,0.0259
5.44,0.894,-2.5715,9.4654,-0.0196,-0.0303,0.0284
5.46,0.9715,-2.658,9.2821,-0.0093,-0.0746,-0.0158
5.48,0.8505,-2.4998,9.2026,0.0329,-0.0233,-0.0408
5.5,0.945,-2.6725,9.1148,0.1206,0.0971,-0.0252
5.52,0.9278,-2.4898,8.8164,0.1841,0.264,0.0143
5.54,1.129,-2.3618,8.8156,0.1422,0.2413,0.0154
5.56,0.6827,-2.3112,8.6032,-0.1053,-0.1157,0.0616
5.58,0.5731,-2.5211,8.2929,-0.3533,-0.6385,0.1289
5.6,0.3177,-2.5855,8.2076,-0.5826,-0.6275,0.1677
5.62,0.1813,-2.5775,9.7086,-0.6172,0.0294,0.1316
5.64,0.2857,-3.221,11.4532,-0.2705,0.8406,0.0398
5.66,1.0398,-3.0036,11.8151,0.2024,0.9104,-0.0493
5.68,1.749,-2.6482,10.0425,0.5602,0.1519,-0.1213
5.7,1.5206,-2.7353,8.552,0.6527,-0.5418,-0.1625
5.72,1.153,-2.501,8.3043,0.412,-0.6907,-0.1465
5.74,0.6919,-2.5567,8.2585,0.0902,-0.1891,-0.0801
5.76,0.7587,-2.278,8.7939,-0.1052,0.2087,-0.0519
5.78,0.7108,-2.5469,8.9435,-0.1613,0.2729,0.0163
5.8,1.161,-2.3619,9.4588,-0.0974,0.1003,0.0321
5.82,0.8473,-2.5858,9.1899,-0.0452,-0.0487,0.0521
5.84,0.6791,-2.4908,9.341,-0.0277,-0.0454,0.0222
5.86,0.9288,-2.4241,9.2393,0.0064,-0.0529,0.035
5.88,0.9653,-2.7279,9.3324,0.0046,0.0345,0.0225
5.9,0.8445,-2.6916,9.0262,-0.0075,-0.0375,-0.0285
5.92,0.9813,-2.7049,9.2243,0.0398,0.0005,0.0585
5.94,1.0412,-2.6842,9.0547,0.1306,0.1054,0.0192
5.96,0.8694,-2.6428,8.8536,0.1107,0.2284,-0.0324
5.98,1.0106,-2.4894,9.0041,0.0661,0.1495,-0.0178
6.0,0.6243,-2.5865,8.6082,-0.1099,-0.2328,-0.088
6.02,0.6956,-2.6878,8.2831,-0.3708,-0.5826,-0.1222
6.04,0.4692,-2.4788,8.8538,-0.4659,-0.4279,-0.1341
6.06,0.1056,-2.2484,9.8365,-0.4099,0.2162,-0.0906
6.08,0.941,-2.0412,11.8138,-0.1348,0.7167,-0.0606
6.1,0.9251,-2.4511,10.6443,0.2528,0.5788,0.0218
6.12,1.4708,-2.4237,9.48,0.4649,-0.0645,0.0877
6.14,1.3675,-2.6047,8.5821,0.4396,-0.5544,0.1163
6.16,1.419,-2.295,8.9571,0.3005,-0.4451,0.1139
6.18,1.0679,-2.5825,9.0224,0.0448,-0.0362,0.0656
6.2,1.1901,-2.477,8.9699,-0.1149,0.2172,0.0217
6.22,0.8877,-2.7533,9.2319,-0.1206,0.1647,-0.0208
6.24,0.7713,-2.5805,9.3086,-0.0771,0.0666,-0.0464
6.26,1.0733,-2.4543,9.4232,0.0055,-0.0254,0.0048
6.28,0.8958,-2.5367,9.57,0.0246,-0.0246,-0.0138
6.3,1.0822,-2.6145,9.5546,0.0039,-0.0236,0.0022
6.32,1.1764,-2.6037,9.3645,0.0275,-0.0088,0.014
6.34,0.8995,-2.6816,9.3023,0.0064,-0.0515,-0.0021
6.36,0.7055,-2.5709,9.3795,0.0241,-0.0355,0.0086
6.38,1.0949,-2.4419,9.3671,0.0786,-0.0204,-0.0222
6.4,1.0449,-2.6805,8.8704,0.0691,0.058,-0.002
6.42,1.4271,-2.4212,9.1263,0.184,0.2631,0.0293
6.44,1.2866,-2.2545,9.0823,0.1117,0.1738,0.021
6.46,1.0176,-2.3105,8.9319,-0.1076,-0.1984,0.0809
6.48,0.8823,-2.477,8.8743,-0.3269,-0.5842,0.1595
6.5,0.3487,-2.5374,8.5157,-0.5435,-0.5654,0.1555
6.52,0.4108,-2.5351,10.2093,-0.4958,0.1488,0.1403
6.54,0.8846,-2.458,12.5542,-0.1414,0.8387,0.0944
6.56,1.2465,-3.0093,11.0997,0.2492,0.7701,-0.0698
6.58,1.6335,-2.9469,9.8281,0.5253,0.0209,-0.1626
6.6,1.5138,-2.4401,8.7739,0.5582,-0.618,-0.1573
6.62,1.0402,-2.5874,8.6463,0.3026,-0.5686,-0.1168
6.64,1.1632,-2.3134,9.0587,0.0955,-0.0598,-0.0504
6.66,0.9798,-2.4165,9.1679,-0.1304,0.1913,-0.0152
6.68,0.828,-2.3792,8.9023,-0.159,0.2164,-0.0031
6.7,0.7767,-2.6956,9.3785,-0.1473,0.0639,0.0023
6.72,1.1153,-2.3262,9.8414,0.0177,-0.0144,0.0427
6.74,1.0548,-2.6603,9.5468,0.014,-0.0386,0.0282
6.76,1.1486,-2.6638,9.6689,0.009,-0.0193,-0.0058
6.78,1.0601,-2.4989,9.4957,0.0343,0.0352,0.0195
6.8,0.9747,-2.4462,9.324,-0.0197,-0.0072,0.0203
6.82,1.1943,-2.476,9.5026,0.0079,-0.0447,-0.0106
6.84,1.0104,-2.5423,9.5552,0.0617,-0.044,-0.0017
6.86,0.9534,-2.5552,9.3344,0.08,-0.0047,0.0136
6.88,1.0687,-2.7235,8.8593,0.1519,0.1544,-0.0025
6.9,0.909,-2.5735,9.0906,0.1601,0.2786,-0.0282
6.92,1.2128,-2.4448,9.2296,0.0581,0.0449,-0.0145
6.94,0.7464,-2.6973,8.6404,-0.2742,-0.4895,-0.0857
6.96,0.7099,-2.4776,8.6952,-0.5077,-0.6649,-0.1759
6.98,0.2466,-2.3611,9.3202,-0.6241,-0.2465,-0.145
7.0,0.7106,-2.1683,11.2387,-0.3878,0.5934,-0.0541
7.02,0.6286,-2.4771,11.5436,0.0109,0.9452,-0.0239
7.04,1.7518,-2.0869,10.9269,0.4439,0.4411,0.0839
7.06,1.5592,-2.4007,8.9525,0.6442,-0.3676,0.1338
7.08,1.1719,-2.4946,8.2819,0.491,-0.6809,0.1252
7.1,1.445,-2.4809,8.8886,0.231,-0.3765,0.0951
7.12,0.8772,-3.2152,8.5312,-0.0729,0.0879,0.0601
7.14,0.9751,-2.4329,9.0594,-0.1326,0.2791,0.0045
7.16,0.9566,-2.7959,9.0706,-0.1322,0.1456,-0.0258
7.18,1.0118,-2.5338,9.2541,-0.097,0.0097,0.0214
7.2,1.1821,-2.5085,9.4833,0.022,-0.0446,-0.0364
7.22,1.1334,-2.545,9.5351,0.0182,-0.041,0.009
7.24,0.855,-2.493,9.4568,0.0487,-0.003,0.0093
7.26,0.8417,-2.6017,9.3294,-0.0139,-0.0748,-0.0348
7.28,1.1645,-2.6241,9.623,0.0154,-0.0415,0.0036
7.3,1.1721,-2.5944,9.2672,0.1229,0.032,-0.0013
7.32,0.8992,-2.7114,8.5972,0.1559,0.1905,-0.0423
7.34,1.0767,-2.3721,8.8473,0.1476,0.2796,0.0329
7.36,1.0252,-2.4817,8.6464,-0.0093,-0.0312,0.0641
7.38,0.7653,-2.2766,8.2953,-0.3198,-0.5483,0.0941
7.4,0.5107,-2.7057,8.4687,-0.5696,-0.6955,0.127
7.42,0.2464,-2.59,9.3691,-0.5758,-0.1,0.1234
7.44,0.7102,-2.7401,11.959,-0.3014,0.6993,0.0668
7.46,1.0168,-2.822,12.4838,0.1376,0.9555,-0.0154
7.48,1.6623,-2.8844,9.9466,0.5356,0.3428,-0.1038
7.5,1.8235,-2.8442,8.6774,0.6462,-0.4719,-0.1612
7.52,1.1168,-2.6027,8.1265,0.4434,-0.7432,-0.1503
7.54,0.8169,-2.2792,8.5436,0.1353,-0.3226,-0.1037
7.56,1.0494,-2.4583,8.4405,-0.0819,0.1855,-0.0164
7.58,0.8701,-2.4609,9.2195,-0.1398,0.3003,0.0169
7.6,0.8738,-2.638,8.9629,-0.1318,0.1203,0.0461
7.62,0.6877,-2.7328,9.2087,-0.0692,-0.0586,0.0113
7.64,0.9153,-2.4702,9.3135,-0.005,-0.0786,0.0122
7.66,0.827,-2.5829,8.9835,0.0035,-0.0301,-0.0062
7.68,0.8386,-2.5311,9.5027,0.0424,-0.023,0.0081
7.7,0.7298,-2.514,8.9806,-0.0251,-0.0323,0.0182
7.72,0.9862,-2.6916,9.2616,-0.0108,-0.0219,-0.012
7.74,0.9263,-2.2969,9.3737,0.035,-0.0319,0.0131
7.76,0.7057,-2.8068,9.0179,0.0349,-0.0265,0.0058
7.78,0.7956,-2.6222,8.9763,0.1121,0.0976,-0.0131
7.8,1.1253,-2.7447,8.9984,0.1653,0.2592,0.005
7.82,0.9491,-2.5765,8.8529,0.1207,0.1887,-0.0025
7.84,0.8951,-2.7637,8.5359,-0.0669,-0.1808,-0.0409
7.86,0.7913,-2.5805,8.5331,-0.3616,-0.5736,-0.1404
7.88,0.0877,-2.4861,8.4185,-0.5435,-0.5387,-0.187
7.9,0.3075,-2.2358,9.7153,-0.4911,0.0998,-0.1345
7.92,0.6913,-2.3012,11.705,-0.1932,0.8041,-0.0311
7.94,0.9016,-2.2479,11.1691,0.2118,0.7469,0.0397
7.96,1.8241,-2.5153,9.538,0.5338,0.0304,0.1369
7.98,1.3203,-2.4022,8.8111,0.5709,-0.5766,0.1816
8.0,0.9766,-2.6657,8.4747,0.3044,-0.5435,0.1261
8.02,1.0744,-2.93,8.4894,0.1074,-0.1271,0.0615
8.04,0.825,-2.575,8.8505,-0.1437,0.2067,-0.0101
8.06,0.7603,-2.5577,8.9714,-0.0841,0.2214,0.0183
8.08,0.9709,-2.3955,9.4389,-0.0815,0.0641,-0.0199
8.1,0.8899,-2.491,9.3636,0.008,-0.0287,-0.0583
8.12,1.1106,-2.61,9.3256,-0.0053,-0.0397,-0.0104
8.14,0.9415,-2.622,9.411,-0.0106,-0.0226,0.0093
8.16,0.7856,-2.5101,8.9578,-0.0495,-0.0612,-0.0497
8.18,1.0302,-2.455,9.8397,-0.0126,0.0058,0.004
8.2,1.277,-2.3939,10.0348,0.0511,0.0054,-0.0376
8.22,1.1292,-2.5077,9.3377,0.1205,0.0477,-0.0123
8.24,0.9998,-2.4886,9.012,0.2036,0.2081,-0.0468
8.26,0.9333,-2.1899,8.5477,0.1296,0.2279,-0.0014
8.28,1.0452,-2.4756,8.5907,-0.0077,-0.0211,0.0241
8.3,0.8434,-2.4517,8.55,-0.2486,-0.4855,0.1295
8.32,0.4566,-2.5711,8.602,-0.5219,-0.7386,0.1618
8.34,0.381,-2.5701,8.995,-0.6438,-0.2502,0.1684
8.36,0.6223,-2.6416,11.5438,-0.416,0.6336,0.0866
8.38,0.9857,-2.9094,12.074,0.0811,0.9883,-0.0188
8.4,1.553,-2.8875,10.3932,0.4875,0.4076,-0.1227
8.42,1.9937,-2.6381,9.1316,0.6417,-0.4334,-0.1481
8.44,1.749,-2.4401,8.677,0.5099,-0.6945,-0.1393
8.46,1.1281,-2.4381,8.8514,0.2192,-0.3218,-0.0972
8.48,0.8971,-2.5075,8.4639,-0.0654,0.1456,-0.0752
8.5,0.5394,-2.7003,8.8765,-0.2081,0.2535,0.0011
8.52,0.9918,-2.5159,8.9091,-0.1818,0.0887,0.0099
8.54,0.8309,-2.4734,9.2993,-0.0578,0.0066,0.0626
8.56,1.1427,-2.311,9.433,-0.0166,-0.0419,0.0235
8.58,1.0095,-2.4865,9.0949,-0.0438,-0.0593,-0.0064
8.6,0.8432,-2.6601,9.5071,0.0092,-0.0328,0.0191
8.62,0.8365,-2.669,9.2537,0.0201,-0.0866,-0.0269
8.64,1.2391,-2.5105,9.5454,0.0625,-0.0298,-0.002
8.66,1.0877,-2.704,9.0206,0.0979,0.0265,-0.0025
8.68,1.3386,-2.4558,9.2412,0.1722,0.2462,0.0051
8.7,0.9836,-2.6961,8.6855,0.1178,0.179,-0.0284
8.72,0.8564,-2.6391,8.9091,-0.0743,-0.1396,-0.0936
8.74,1.0692,-2.4414,8.7319,-0.3162,-0.5933,-0.136
8.76,0.7004,-2.5464,8.5654,-0.5629,-0.5953,-0.1727
8.78,0.3888,-2.3284,9.7673,-0.5138,0.0725,-0.1323
8.8,0.7286,-2.4468,11.7595,-0.2261,0.8155,-0.0399
8.82,1.5125,-2.1541,12.2389,0.2054,0.7775,0.0485
8.84,1.6556,-2.3481,9.7991,0.563,0.0791,0.1407
8.86,1.5869,-2.3084,8.9898,0.5953,-0.5534,0.1731
8.88,1.3321,-2.6488,8.7279,0.3621,-0.5797,0.1567
8.9,1.1246,-2.566,8.8259,0.1018,-0.1578,0.062
8.92,0.9035,-2.6616,8.8362,-0.1109,0.2035,0.0342
8.94,0.8515,-2.5078,9.1094,-0.1732,0.2594,0.0092
8.96,0.8147,-2.6414,8.9806,-0.0953,0.0635,-0.0443
8.98,1.1142,-2.6578,9.5373,-0.0378,-0.0192,-0.0076
9.0,1.0181,-2.61,9.3508,-0.0075,-0.0723,0.0074
9.02,1.2431,-2.3815,9.6951,0.0714,-0.0098,0.0092
9.04,0.6885,-2.6095,8.8925,-0.037,-0.0474,-0.0285
9.06,1.0508,-2.5485,9.6875,0.0457,-0.0308,0.0073
9.08,1.218,-2.753,9.2187,0.0035,-0.0732,0.0107
9.1,1.1438,-2.3686,9.47,0.1156,-0.0015,-0.0208
9.12,1.1996,-2.6797,8.8927,0.116,0.1501,-0.0439
9.14,0.8884,-2.5604,8.7328,0.1253,0.2695,-0.0285
9.16,0.9962,-2.4278,8.7914,0.0276,0.0768,0.0494
9.18,0.868,-2.3035,8.6747,-0.2271,-0.447,0.1009
9.2,0.6926,-2.396,8.5994,-0.5164,-0.7062,0.1447
9.22,0.3111,-2.672,8.9659,-0.6334,-0.3279,0.1432
9.24,0.2747,-3.0241,10.4187,-0.4017,0.5164,0.1039
9.26,0.937,-2.9656,11.9199,-0.0046,0.9459,-0.0148
9.28,1.857,-2.5131,11.0662,0.4259,0.4802,-0.1228
9.3,1.6734,-2.7515,8.9906,0.6118,-0.3276,-0.194
9.32,1.334,-2.6176,8.3683,0.4901,-0.7136,-0.1572
9.34,0.9162,-2.3396,8.8368,0.2544,-0.4012,-0.0769
9.36,1.0604,-2.5781,8.7648,-0.0587,0.1081,-0.0473
9.38,0.9283,-2.3852,8.9656,-0.1057,0.308,-0.0144
9.4,1.0995,-2.5245,9.245,-0.1013,0.1759,0.0546
9.42,0.7427,-2.737,9.1399,-0.0789,-0.015,0.0211
9.44,0.9345,-2.5099,9.6344,-0.0161,-0.0786,0.0117
9.46,0.8609,-2.5382,9.1601,-0.034,-0.0992,-0.0277
9.48,1.0002,-2.519,9.4281,0.0174,-0.0293,0.0054
9.5,1.0194,-2.4538,9.3802,0.0513,-0.0165,0.0235
9.52,1.0446,-2.3497,9.2229,0.0796,0.0225,0.0348
9.54,0.9932,-2.6264,9.0435,0.1647,0.1694,0.0174
9.56,0.6842,-2.6006,8.6613,0.1102,0.2127,-0.0417
9.58,0.7809,-2.7132,8.4301,-0.0255,-0.043,-0.0717
9.6,0.7873,-2.5104,8.436,-0.2411,-0.4563,-0.1133
9.62,0.5375,-2.6164,8.3659,-0.4823,-0.6406,-0.1439
9.64,0.2554,-2.7064,9.1042,-0.5469,-0.1724,-0.1279
9.66,0.2115,-2.5309,10.6935,-0.3157,0.5976,-0.0669
9.68,1.4513,-2.0797,12.4562,0.1262,0.8858,0.0227
9.7,1.3623,-2.3984,9.8687,0.4537,0.3453,0.0928
9.72,1.4179,-2.4168,8.6445,0.5005,-0.4151,0.1309
9.74,1.4281,-2.7085,8.4002,0.4252,-0.622,0.1431
9.76,1.1227,-2.5743,8.576,0.1813,-0.2663,0.0818
9.78,1.2269,-2.8725,8.8739,-0.0801,0.1431,0.0205
9.8,0.7845,-2.4353,8.7514,-0.1324,0.2442,-0.0308
9.82,0.9582,-2.5383,9.0419,-0.1333,0.1072,-0.0031
9.84,0.8632,-2.6641,9.2403,-0.0472,-0.0261,-0.0352
9.86,0.7816,-2.3438,9.6638,-0.0109,-0.0422,-0.0005
9.88,1.0724,-2.6879,9.4248,-0.0125,-0.0298,0.0239
9.9,1.1524,-2.4495,9.4278,0.0227,-0.0159,0.0076
9.92,0.8452,-2.8882,9.1994,0.0183,-0.0649,-0.0053
9.94,0.9083,-2.538,9.3234,0.0889,-0.0417,-0.0134
9.96,1.2427,-2.6455,9.1284,0.1452,0.13,-0.0195
9.98,1.3399,-2.1965,9.1472,0.2044,0.28,0.0137
10.0,0.9469,-2.5516,8.6509,0.0819,0.1471,-0.0017
10.02,0.8466,-2.2602,8.4631,-0.12,-0.2907,0.0928
10.04,0.4941,-2.5297,8.0967,-0.4959,-0.7462,0.1306
10.06,0.5076,-2.7721,8.5341,-0.6553,-0.5684,0.1368
10.08,0.5467,-2.6032,10.589,-0.5248,0.2801,0.1544
10.1,0.2375,-2.9609,11.6989,-0.139,0.9362,0.0423
10.12,1.6445,-3.0519,11.6693,0.3709,0.8018,-0.0603
10.14,1.6157,-2.633,9.2618,0.6051,-0.071,-0.1398
10.16,1.3229,-2.6509,8.3627,0.6101,-0.7114,-0.1813
10.18,0.9261,-2.4685,8.2126,0.3309,-0.6131,-0.0817
10.2,0.6969,-2.5341,8.3672,0.0364,-0.082,-0.0923
10.22,1.0088,-2.2089,8.8599,-0.08,0.2979,-0.0089
10.24,0.9979,-2.6981,9.1434,-0.166,0.2307,-0.0043
10.26,0.8087,-2.4559,9.2318,-0.1103,0.0724,0.0442
10.28,0.7539,-2.6409,9.2174,-0.0544,-0.0787,0.032
10.3,1.0661,-2.7149,9.4362,0.0256,-0.057,0.0012
10.32,1.004,-2.4515,9.2827,0.018,-0.001,0.0101
10.34,0.7349,-2.5688,9.4168,0.015,-0.0239,-0.0033
10.36,0.9581,-2.4497,9.2978,-0.0212,-0.0066,-0.0095
10.38,1.1022,-2.3637,9.2398,-0.0014,-0.0527,-0.0159
10.4,0.9532,-2.6457,9.4261,0.0492,-0.0614,0.0458
10.42,1.1487,-2.3688,9.3113,0.1528,0.0633,0.0041
10.44,1.2287,-2.4629,9.0226,0.1762,0.2334,0.0042
10.46,1.1428,-2.6346,9.084,0.1404,0.2205,0.0072
10.48,0.9905,-2.6672,8.6109,-0.046,-0.1278,-0.0403
10.5,0.7634,-2.7836,8.6005,-0.301,-0.5651,-0.1086
10.52,0.5825,-2.2567,8.4551,-0.4971,-0.5466,-0.1352
10.54,0.4858,-2.4589,9.67,-0.5474,-0.0341,-0.1537
10.56,0.3357,-2.456,10.9167,-0.2355,0.727,-0.051
10.58,1.0145,-2.2488,11.6895,0.1444,0.7813,0.0123
10.6,2.1479,-2.2594,10.4807,0.532,0.1584,0.125
10.62,1.6175,-2.6144,8.6907,0.5606,-0.4949,0.122
10.64,1.3575,-2.2444,8.7965,0.4025,-0.5899,0.1165
10.66,1.1119,-2.6502,8.8955,0.1167,-0.1709,0.0628
10.68,1.0567,-2.6881,8.8883,-0.1083,0.1763,0.0432
10.7,0.9875,-2.5847,9.4775,-0.1163,0.2259,-0.0356
10.72,1.0294,-2.6,9.0186,-0.1157,0.0378,-0.0504
10.74,0.9727,-2.5458,9.6898,-0.0232,-0.0384,0.0126
10.76,1.0111,-2.4187,9.6066,0.0241,-0.0726,-0.0048
10.78,0.9458,-2.6849,9.2835,-0.0228,-0.0406,0.0145
10.8,1.0176,-2.7896,9.1177,0.0015,-0.0358,0.0009
10.82,1.1621,-2.4554,9.5603,0.0217,-0.0254,-0.0285
10.84,1.1084,-2.5331,9.4188,-0.0278,-0.0467,-0.0117
10.86,1.3045,-2.4179,9.5652,0.1368,0.0683,-0.0245
10.88,1.0992,-2.4667,9.1395,0.1735,0.1816,-0.0482
10.9,1.2232,-2.3841,9.186,0.1771,0.2505,0.0443
10.92,1.0153,-2.4314,8.8896,-0.0261,-0.0432,0.071
10.94,0.9119,-2.5185,8.6413,-0.2628,-0.4684,0.1228
10.96,0.785,-2.2938,8.7117,-0.5031,-0.6128,0.1423
10.98,0.4547,-2.6181,9.3967,-0.5696,-0.0718,0.1136
11.0,0.7716,-2.7875,11.5182,-0.3003,0.5923,0.0293
11.02,0.7552,-3.1651,11.0382,0.0928,0.8048,-0.0414
11.04,1.9684,-2.6096,10.5262,0.4697,0.2245,-0.0977
11.06,1.4717,-2.5174,8.8334,0.5769,-0.4476,-0.1346
11.08,1.6391,-2.6752,8.9619,0.3991,-0.6124,-0.1493
11.1,1.3916,-2.1003,9.5729,0.2163,-0.2054,-0.0703
11.12,0.9425,-2.5865,8.6233,-0.1298,0.1115,-0.0416
11.14,1.3922,-2.1432,9.6117,-0.0815,0.3076,0.0034
11.16,0.4711,-2.7644,8.2375,-0.18,0.0436,0.0316
11.18,0.7814,-2.5811,9.0026,-0.0861,-0.0551,0.0113
11.2,1.5461,-2.3095,10.5101,0.0491,-0.0124,0.02
11.22,0.5929,-2.7386,8.677,-0.0447,-0.0962,0.0308
11.24,1.3437,-2.5583,9.7741,0.0252,-0.0548,0.0246
11.26,0.6868,-2.7975,9.2005,0.0228,-0.0831,-0.0166
11.28,1.7427,-2.4082,10.1661,0.1295,0.0559,0.0229
11.3,1.2976,-2.3058,9.242,0.1777,0.1516,0.0339
11.32,1.3528,-2.6225,9.2286,0.2317,0.3335,-0.0104
11.34,0.9475,-2.6408,8.5391,0.0264,0.0764,-0.0173
11.36,1.2685,-2.5714,9.3169,-0.1817,-0.417,-0.1284
11.38,0.6519,-2.6346,8.4615,-0.5283,-0.7502,-0.1482
11.4,-0.1681,-2.7285,8.0397,-0.694,-0.3811,-0.177
11.42,0.1285,-2.6345,10.4468,-0.4548,0.5677,-0.1042
11.44,0.5995,-2.4516,11.4343,-0.0865,0.9533,0.0001
11.46,1.9697,-2.2356,11.4232,0.4705,0.5457,0.0894
11.48,1.4923,-2.5269,8.93,0.6515,-0.3346,0.1502
11.5,1.1971,-2.7986,7.9552,0.5108,-0.759,0.1779
11.52,0.9933,-2.5696,8.7116,0.2522,-0.4341,0.127
11.54,1.4012,-2.5009,9.315,-0.0219,0.118,0.0538
11.56,1.1132,-2.5033,9.4509,-0.1282,0.3193,0.0031
11.58,0.4246,-2.774,8.6352,-0.1597,0.1545,0.0028
11.6,0.8506,-2.6732,9.141,-0.0595,-0.0107,-0.0105
11.62,1.1967,-2.4697,9.9432,0.0322,-0.0572,-0.0566
11.64,0.2963,-3.0679,8.5494,-0.0657,-0.0701,-0.0205
11.66,0.5506,-2.8179,8.5181,-0.0436,-0.051,0.0035
11.68,0.5665,-2.7504,8.735,-0.0108,-0.0724,-0.0084
11.7,0.8488,-2.6184,9.087,-0.0196,-0.0255,0.0009
11.72,1.2036,-2.5471,9.5728,0.0582,-0.0439,-0.0101
11.74,0.8795,-2.738,9.0684,0.0617,0.0308,-0.0197
11.76,0.8913,-2.4857,9.1037,0.1572,0.1584,-0.0263
11.78,1.0227,-2.6784,8.8299,0.1087,0.2232,0.0329
11.8,0.8757,-2.4489,8.6475,-0.0167,-0.0564,0.0194
11.82,1.0455,-2.6051,8.8867,-0.2321,-0.4889,0.1527
11.84,0.5847,-3.0251,8.5185,-0.5083,-0.6053,0.1245
11.86,0.2663,-2.5959,9.2806,-0.5081,-0.0679,0.1705
11.88,0.4405,-2.9839,10.7737,-0.2637,0.6689,0.0494
11.9,1.5893,-2.5407,12.1704,0.1646,0.847,-0.0101
11.92,1.7425,-2.5144,10.0425,0.4613,0.2242,-0.0888
11.94,1.8902,-2.5119,8.8434,0.5627,-0.4807,-0.1372
11.96,1.3295,-2.5819,8.7819,0.4163,-0.5957,-0.0943
11.98,0.9775,-2.6298,8.509,0.0881,-0.2456,-0.0733
12.0,0.826,-2.5123,9.0511,-0.0826,0.1244,-0.0195
12.02,0.8549,-2.5876,9.0768,-0.1455,0.2125,0.0213
12.04,0.7953,-2.6757,9.0182,-0.0694,0.0746,0.0062
12.06,0.9396,-2.689,9.4709,-0.0495,-0.0472,0.021
12.08,0.9843,-2.2743,9.4289,0.0169,-0.0459,0.0123
12.1,1.075,-2.5278,9.219,-0.0083,-0.0443,0.0073
12.12,0.9649,-2.4342,9.3477,0.011,-0.0095,0.004
12.14,0.9938,-2.3887,9.4721,0.0271,-0.0356,-0.0371
12.16,0.9603,-2.6757,9.1684,0.0292,-0.0752,0.0016
12.18,1.0286,-2.8107,8.8004,0.0728,-0.0104,0.0046
12.2,1.0476,-2.7761,9.3054,0.1336,0.1957,0.0416
12.22,0.7244,-2.8134,8.7129,0.0544,0.1685,-0.0172
12.24,0.9132,-2.5275,8.6316,-0.0392,-0.0574,-0.0825
12.26,0.8978,-2.5323,8.7147,-0.2599,-0.46,-0.0816
12.28,0.6079,-2.5853,8.2304,-0.5154,-0.5664,-0.1435
12.3,0.5517,-2.2703,9.8329,-0.4357,-0.0202,-0.0711
12.32,0.6704,-2.4122,10.8508,-0.251,0.5613,-0.0573
12.34,1.0033,-2.4089,10.852,0.1391,0.6912,0.0517
12.36,1.7486,-2.2957,10.1192,0.4435,0.1657,0.1217
12.38,1.4501,-2.4169,8.5688,0.4743,-0.4456,0.1378
12.4,1.2266,-2.4335,8.4966,0.3309,-0.5577,0.0989
12.42,0.9698,-2.8983,8.5082,0.0907,-0.1876,0.0788
12.44,1.0842,-2.532,8.892,-0.0594,0.1365,0.0356
12.46,0.8983,-2.6956,8.9859,-0.1447,0.1683,-0.0238
12.48,0.9297,-2.7717,9.2683,-0.0959,0.0622,-0.0376
12.5,0.8747,-2.3994,9.2922,-0.0882,-0.0256,-0.0305
12.52,1.1604,-2.2635,9.5469,0.0259,-0.0347,-0.0025
12.54,1.0878,-2.5298,9.4342,0.0121,-0.0472,-0.005
12.56,0.7945,-2.6297,9.0398,-0.0157,0.0076,-0.0009
12.58,1.0185,-2.5501,8.9519,-0.0153,-0.0505,0.0077
12.6,1.1511,-2.5768,9.5609,0.0063,-0.0791,-0.016
12.62,1.1852,-2.6026,9.4668,0.0366,-0.0219,-0.0292
12.64,1.2289,-2.6074,9.2616,0.1428,0.1055,-0.0102
12.66,1.249,-2.3898,9.3168,0.1734,0.2488,0.0042
12.68,0.8768,-2.6843,8.63,0.0903,0.2089,0.0569
12.7,1.0778,-2.4036,8.6081,-0.1026,-0.2209,0.0917
12.72,0.7455,-2.4614,8.4898,-0.3913,-0.6953,0.1533
12.74,0.4158,-2.5853,8.6752,-0.613,-0.5811,0.1488
12.76,0.485,-2.792,10.2574,-0.5603,0.1451,0.1495
12.78,0.5473,-2.8862,11.6225,-0.219,0.8582,0.0254
12.8,1.1591,-2.7618,11.4627,0.2649,0.8423,-0.065
12.82,1.9844,-2.4738,10.1708,0.6364,0.041,-0.158
12.84,1.6201,-2.613,8.5927,0.5915,-0.6649,-0.1566
12.86,1.2189,-2.4504,8.7898,0.3907,-0.5798,-0.0978
12.88,1.2616,-2.2987,8.9098,0.1064,-0.1111,-0.0638
12.9,0.8808,-2.5305,8.9302,-0.1312,0.2283,-0.0045
12.92,0.9831,-2.6986,9.0471,-0.1598,0.2583,0.0102
12.94,0.8529,-2.5653,9.4161,-0.0906,0.0991,0.0224
12.96,0.8565,-2.5947,9.3738,-0.0643,-0.0452,0.0066
12.98,1.0755,-2.5399,9.6524,0.0135,-0.0352,0.0009
13.0,1.1626,-2.6194,9.3265,0.0315,-0.0368,-0.0089
13.02,1.084,-2.4321,9.1297,0.0124,-0.0138,0.015
13.04,1.1162,-2.5862,9.4266,0.025,-0.0201,0.0376
13.06,0.9482,-2.5935,9.553,0.0725,-0.0584,0.0348
13.08,0.8688,-2.7301,9.0479,0.0609,-0.0065,-0.0318
13.1,1.1888,-2.6915,8.9273,0.1226,0.1407,-0.018
13.12,0.9878,-2.767,8.9239,0.1629,0.2325,-0.0108
13.14,1.224,-2.3681,8.976,0.0268,0.0633,-0.0612
13.16,0.9243,-2.5114,8.5305,-0.2103,-0.4324,-0.1081
13.18,0.5954,-2.5119,8.5991,-0.5273,-0.6779,-0.1171
13.2,0.3571,-2.4975,8.9357,-0.6515,-0.2637,-0.1488
13.22,0.6821,-1.9133,11.5987,-0.4013,0.5736,-0.086
13.24,0.7436,-2.1891,11.8311,-0.0081,0.898,0.0144
13.26,1.622,-2.434,10.3151,0.4736,0.4491,0.0711
13.28,1.723,-2.341,9.0599,0.6535,-0.3247,0.1446
13.3,1.3935,-2.6642,8.5402,0.4786,-0.689,0.1157
13.32,1.0887,-2.5471,8.6869,0.1896,-0.3566,0.0798
13.34,0.8983,-2.5837,8.5683,-0.06,0.0561,0.0382
13.36,0.8197,-2.6553,9.1461,-0.1626,0.2534,-0.0128
13.38,1.1133,-2.4985,9.5327,-0.1061,0.1586,-0.0053
13.4,0.5356,-2.6404,9.0719,-0.0943,-0.0423,0.0247
13.42,0.9771,-2.6015,9.3109,-0.0152,-0.0823,-0.0285
13.44,1.243,-2.4459,9.4044,0.0095,0.0109,-0.0169
13.46,0.9727,-2.6657,9.3174,0.0009,-0.032,-0.0025
13.48,0.8594,-2.6957,9.0501,-0.03,-0.0274,-0.0341
13.5,1.1815,-2.7111,9.3233,-0.0103,-0.0502,0.0174
13.52,0.968,-2.5723,9.3339,0.0081,-0.0436,-0.034
13.54,0.8568,-2.5911,9.1545,0.0386,-0.0285,-0.0383
13.56,1.2327,-2.4918,9.1246,0.1896,0.1507,-0.0128
13.58,1.2567,-2.4313,9.1375,0.1674,0.2774,-0.0129
13.6,0.9883,-2.2057,8.4788,0.0437,0.1021,0.0419
13.62,1.0395,-2.5436,8.8681,-0.1649,-0.3011,0.1113
13.64,0.6423,-2.6033,8.4995,-0.4363,-0.6588,0.1524
13.66,0.2821,-2.6795,8.5056,-0.5473,-0.4608,0.1479
13.68,0.6517,-2.4562,10.8415,-0.4408,0.3369,0.1286
13.7,0.4997,-3.0684,11.5534,-0.0942,0.8581,0.0498
13.72,1.2814,-2.9466,10.8,0.3326,0.5744,-0.0844
13.74,1.7193,-2.625,9.0698,0.5644,-0.171,-0.1266
13.76,1.5626,-2.4553,8.4592,0.5206,-0.6307,-0.1593
13.78,1.1248,-2.5148,8.5355,0.2673,-0.4784,-0.1329
13.8,0.9982,-2.5387,8.5005,-0.0351,-0.0109,-0.0584
13.82,0.6751,-2.463,8.8001,-0.1359,0.2632,0.0077
13.84,0.7521,-2.3593,8.8905,-0.1515,0.1557,0.0231
13.86,0.7843,-2.7126,8.8744,-0.1372,0.0257,0.0294
13.88,1.0774,-2.493,9.4058,0.0003,-0.0661,0.0292
13.9,0.9146,-2.7118,9.4107,0.008,-0.0575,-0.0233
13.92,0.9739,-2.5201,9.1741,0.0337,0.0033,-0.0168
13.94,0.9497,-2.5758,9.1717,-0.0013,0.0066,-0.0335
13.96,1.0279,-2.5681,9.3526,0.0446,-0.0032,0.0327
13.98,0.8987,-2.658,9.2067,0.0071,-0.0438,-0.0065
14.0,0.8572,-2.598,9.3964,0.0488,-0.0588,0.0118
14.02,1.0404,-2.6118,9.006,0.1103,0.0022,0.0087
14.04,1.007,-2.7514,9.1877,0.1148,0.1672,0.0177
14.06,0.9244,-2.7149,8.8215,0.1598,0.2423,-0.0076
14.08,0.8116,-2.727,8.6722,0.05,0.0347,-0.0282
14.1,0.7356,-2.6932,8.6148,-0.2074,-0.3807,-0.0982
14.12,0.7209,-2.7208,8.4897,-0.4502,-0.6319,-0.1005
14.14,0.2413,-2.4921,8.7407,-0.5431,-0.3143,-0.1196
14.16,0.0613,-2.5697,10.2517,-0.4028,0.4879,-0.0905
14.18,1.1521,-2.2942,11.927,0.0131,0.872,-0.0157
14.2,1.8579,-2.1142,11.2766,0.4362,0.4718,0.0839
14.22,1.5334,-2.4983,8.851,0.5603,-0.3187,0.157
14.24,1.1444,-2.4171,8.4692,0.4671,-0.6316,0.1356
14.26,0.8386,-2.8487,8.7198,0.2438,-0.3729,0.1621
14.28,0.8362,-2.6198,8.7377,-0.0254,0.0788,0.0822
14.3,0.7809,-2.7217,8.6716,-0.1611,0.1858,-0.0149
14.32,0.9329,-2.71,9.0505,-0.105,0.1503,-0.0257
14.34,0.9076,-2.6368,9.387,-0.0406,0.0359,-0.0119
14.36,0.7484,-2.5547,9.3949,-0.0355,-0.0424,-0.0262
14.38,1.0549,-2.6631,9.194,-0.0408,-0.0237,0.0027
14.4,0.8324,-2.7912,9.1723,-0.0151,-0.0666,-0.0096
14.42,0.9084,-2.7493,9.345,-0.0171,-0.0519,0.019
14.44,0.9135,-2.7114,9.2168,0.0228,-0.066,-0.0121
14.46,1.0961,-2.491,9.2191,0.0742,0.0196,-0.0108
14.48,1.1012,-2.5695,9.2822,0.1615,0.158,-0.0321
14.5,0.9437,-2.6499,8.6816,0.1365,0.2272,0.0155
14.52,0.7979,-2.4267,8.6022,0.0021,0.0118,0.0421
14.54,1.0596,-2.4194,8.6407,-0.1766,-0.368,0.0969
14.56,0.2949,-2.3994,8.3488,-0.4781,-0.6456,0.134
14.58,0.3098,-2.7247,9.1036,-0.5394,-0.2384,0.1159
14.6,0.6736,-2.5852,11.2862,-0.3132,0.5115,0.0908
14.62,0.6613,-3.1525,11.0988,0.0019,0.7988,-0.037
14.64,1.9121,-2.7873,10.7867,0.4066,0.3966,-0.0952
14.66,1.5002,-2.7115,8.9978,0.5432,-0.305,-0.1422
14.68,1.1286,-2.4332,8.5457,0.4131,-0.6509,-0.1337
14.7,0.8526,-2.6013,8.6411,0.1757,-0.3291,-0.0989
14.72,1.2766,-2.258,9.2856,0.0206,0.1252,-0.0607
14.74,1.0247,-2.3459,9.1903,-0.1002,0.269,0.0029
14.76,0.7653,-2.5274,9.2,-0.1346,0.1186,0.0204
14.78,0.805,-2.4763,9.1593,-0.0638,0.0109,0.0319
14.8,1.0526,-2.574,9.3183,-0.0641,-0.04,0.0218
14.82,1.1452,-2.7332,9.5168,-0.0144,-0.0608,-0.0109
14.84,1.0142,-2.5431,9.3322,0.0169,-0.0399,-0.0146
14.86,1.0242,-2.5224,9.4132,-0.0249,-0.0445,-0.0002
14.88,0.9608,-2.5783,9.2859,-0.0079,-0.0428,-0.0121
14.9,1.2425,-2.4637,9.5319,0.1121,0.0048,0.0189
14.92,0.9885,-2.6383,9.2859,0.1116,0.1435,0.0133
14.94,1.2338,-2.5432,9.0345,0.1516,0.2689,0.002
14.96,1.089,-2.6341,8.8624,0.0504,0.1052,-0.0268
14.98,1.1944,-2.4629,8.7847,-0.152,-0.3415,-0.0904
15.0,0.592,-2.4555,8.5639,-0.4799,-0.6902,-0.124
15.02,0.6893,-2.1071,9.1628,-0.5528,-0.3447,-0.1426
15.04,0.4284,-2.3228,10.891,-0.4199,0.4541,-0.1094
15.06,1.1365,-2.3182,12.5985,-0.0384,0.9083,-0.0033
15.08,1.4288,-2.3415,10.6167,0.3948,0.5527,0.1087
15.1,1.7432,-2.5474,8.7692,0.5721,-0.2955,0.13
15.12,1.4222,-2.6607,8.5177,0.5111,-0.6833,0.168
15.14,1.1968,-2.5264,8.6519,0.2064,-0.4199,0.1103
15.16,1.132,-2.6601,8.6763,0.0177,0.0104,0.0469
15.18,0.9091,-2.4534,9.0581,-0.1577,0.2561,0.0219
15.2,1.1021,-2.5816,9.2416,-0.1671,0.1755,-0.0452
15.22,0.6501,-2.6094,9.2914,-0.0989,0.009,-0.0249
15.24,1.057,-2.467,9.7291,-0.0212,-0.0772,-0.0022
15.26,1.0036,-2.5347,9.5443,0.0087,-0.0503,0.0026
15.28,1.081,-2.5082,9.2813,0.0054,0.0091,-0.0301
15.3,1.0015,-2.6504,9.0103,-0.0412,-0.0028,-0.0384
15.32,1.1462,-2.5189,9.4808,0.0118,-0.0347,0.0193
15.34,0.9414,-2.769,9.2603,-0.0105,-0.0565,0.0237
15.36,1.0642,-2.5239,9.3514,0.0058,-0.0436,-0.0242
15.38,1.0871,-2.4018,9.1996,0.1291,0.0354,-0.0021
15.4,0.8643,-2.4603,8.864,0.1401,0.2192,-0.0292
15.42,1.0487,-2.5213,8.9828,0.0907,0.2183,0.0143
15.44,0.7989,-2.48,8.5823,-0.0572,-0.1213,0.0908
15.46,0.6864,-2.4837,8.4123,-0.3095,-0.5017,0.1031
15.48,0.5834,-2.6723,8.5088,-0.5001,-0.5736,0.0972
15.5,0.4472,-2.8633,9.8581,-0.4606,0.0188,0.1219
15.52,0.7213,-3.0051,11.42,-0.2895,0.702,0.0478
15.54,0.8565,-3.242,11.0181,0.1071,0.7602,-0.0135
15.56,1.9034,-2.5608,10.4524,0.4856,0.188,-0.0743
15.58,1.4432,-2.6641,8.5664,0.5231,-0.4815,-0.175
15.6,1.2319,-2.5262,8.4738,0.3656,-0.5668,-0.1345
15.62,1.0048,-2.407,8.6214,0.1006,-0.2032,-0.057
15.64,1.0713,-2.3029,8.8289,-0.0983,0.1863,0.0096
15.66,0.9244,-2.4968,9.0133,-0.1576,0.2243,0.0166
15.68,0.9075,-2.5839,9.2432,-0.0956,0.0756,0.0315
15.7,0.7859,-2.6029,9.4125,-0.0434,-0.0093,0.0277
15.72,1.2689,-2.8071,9.304,-0.0165,-0.0321,0.0106
15.74,1.0318,-2.5528,9.5386,0.0622,0.0082,-0.0089
15.76,1.0017,-2.8139,9.1206,-0.0043,-0.0233,0.002
15.78,0.9628,-2.6547,9.4784,0.0104,-0.0459,0.0021
15.8,0.7235,-2.5742,9.0857,-0.0025,-0.0511,0.0017
15.82,0.8826,-2.5424,9.4294,0.0729,-0.028,0.0286
15.84,0.7958,-2.8716,8.9106,0.1619,0.0873,0.0307
15.86,1.1839,-2.7799,8.7143,0.153,0.2567,-0.0155
15.88,0.7486,-2.9353,8.835,0.1094,0.1716,-0.0236
15.9,0.8873,-2.4675,8.7762,-0.1388,-0.2799,-0.102
15.92,0.8633,-2.8112,8.3588,-0.4276,-0.6496,-0.1492
15.94,0.2488,-2.5852,8.5097,-0.565,-0.4775,-0.1307
15.96,0.5617,-2.1033,10.409,-0.4541,0.2329,-0.1213
15.98,0.9239,-2.4069,12.0426,-0.0964,0.8762,-0.024
16.0,1.0996,-2.6609,10.633,0.3309,0.6861,0.0607
16.02,1.7098,-2.2964,9.3514,0.5357,-0.0521,0.1088
16.04,1.7211,-2.6995,8.5664,0.5071,-0.6705,0.1739
16.06,0.9904,-2.7807,8.2256,0.2925,-0.5058,0.1053
16.08,1.0992,-2.8159,8.6073,0.0715,-0.0045,0.0569
16.1,1.0144,-2.6144,8.7427,-0.0981,0.2606,0.038
16.12,0.7993,-2.665,9.063,-0.1655,0.2,-0.0138
16.14,0.7303,-2.7911,8.9954,-0.1018,0.034,0.0077
16.16,0.9614,-2.5151,9.2075,-0.0409,-0.0297,-0.0535
16.18,0.6586,-2.7839,9.0956,-0.0045,-0.0357,-0.01
16.2,0.8998,-2.7285,9.1938,-0.0249,-0.0044,-0.0028
16.22,0.9299,-2.5729,9.0362,-0.0289,0.0029,-0.0019
16.24,0.918,-2.4892,9.0874,-0.0132,-0.0483,0.0019
16.26,0.9475,-2.5886,9.2699,0.0206,-0.0697,-0.0335
16.28,0.5559,-2.683,8.7578,0.0438,-0.0456,-0.0293
16.3,1.1277,-2.5956,9.0847,0.098,0.1201,-0.0391
16.32,0.8493,-2.4594,8.8916,0.1681,0.2406,-0.015
16.34,1.1265,-2.7346,8.6068,0.091,0.1273,0.0158
16.36,1.1587,-2.3152,8.9914,-0.112,-0.2662,0.121
16.38,0.71,-2.4748,8.5256,-0.4374,-0.6864,0.173
16.4,0.3472,-2.7219,8.5751,-0.597,-0.4607,0.1589
16.42,0.3123,-2.5791,10.6483,-0.5171,0.3899,0.1212
16.44,0.8106,-2.9884,12.0542,-0.1056,0.9521,0.0019
16.46,1.2237,-2.9108,10.7993,0.3488,0.5984,-0.0957
16.48,1.6581,-2.5914,9.2538,0.5962,-0.1698,-0.1174
16.5,1.3667,-2.6994,8.3555,0.5471,-0.6879,-0.1506
16.52,0.8093,-2.7351,8.2536,0.2514,-0.5408,-0.1129
16.54,1.1437,-2.3121,8.7016,0.0195,-0.0099,-0.0474
16.56,0.6838,-2.528,8.7809,-0.1255,0.2511,0.0011
16.58,0.9206,-2.5389,9.0041,-0.1249,0.1857,0.0593
16.6,0.908,-2.7742,9.2867,-0.0949,0.0393,0.0223
16.62,0.7945,-2.4829,9.4428,-0.0251,-0.0278,0.0284
16.64,0.9338,-2.456,9.2598,0.0002,-0.0355,-0.0013
16.66,0.6662,-2.7134,9.1307,-0.0314,-0.0157,-0.0184
16.68,0.8524,-2.4724,9.2749,0.0055,-0.0388,-0.0138
16.7,1.0622,-2.6297,9.5739,0.0029,-0.0524,0.0543
16.72,1.2873,-2.6498,9.6527,0.064,-0.0238,0.0129
16.74,1.0615,-2.7286,9.0312,0.1474,0.1072,0.0508
16.76,1.0074,-2.8055,8.7327,0.1472,0.2651,0.0206
16.78,0.9524,-2.7068,8.8138,0.086,0.1257,-0.0169
16.8,0.9767,-2.7041,8.5408,-0.1769,-0.3211,-0.1062
16.82,0.898,-2.7058,8.4009,-0.4807,-0.7033,-0.1658
16.84,0.022,-2.7627,8.59,-0.6377,-0.4945,-0.1825
16.86,0.0729,-2.5025,10.0407,-0.5309,0.3282,-0.071
16.88,1.05,-1.9782,12.9432,-0.1086,0.9571,0.0038
16.9,1.2462,-2.1575,11.1995,0.3537,0.6929,0.0948
16.92,1.7943,-2.413,9.5137,0.6345,-0.1331,0.1433
16.94,1.3764,-2.8049,8.3901,0.5361,-0.7182,0.1758
16.96,1.2862,-2.5321,8.4707,0.2884,-0.5454,0.1444
16.98,0.9633,-2.796,8.5358,0.031,-0.0311,0.084
17.0,1.1035,-2.6314,9.0612,-0.106,0.2854,0.0467
17.02,0.8644,-2.7037,8.9164,-0.1528,0.2055,-0.0267
17.04,0.9077,-2.6379,9.3743,-0.1037,0.0093,-0.0138
17.06,0.8929,-2.3143,9.7776,-0.0519,-0.0583,0.0191
17.08,0.9193,-2.4985,9.367,-0.0416,-0.042,-0.0144
17.1,1.29,-2.5436,9.5108,0.0203,-0.008,-0.0171
17.12,0.8495,-2.5824,9.139,-0.0022,-0.0045,0.0072
17.14,0.7532,-2.5848,9.1533,-0.0343,-0.0425,-0.0254
17.16,1.2169,-2.3241,9.6105,0.0306,-0.0084,0.0219
17.18,1.2204,-2.5391,9.302,0.0849,0.0115,-0.0189
17.2,1.1882,-2.4978,9.2502,0.1197,0.1099,-0.0063
17.22,0.9101,-2.5098,9.0034,0.1474,0.2095,-0.0311
17.24,1.3044,-2.5837,8.9889,0.0315,0.1009,0.046
17.26,0.9006,-2.4661,8.7677,-0.1693,-0.3351,0.104
17.28,0.7392,-2.7662,8.5904,-0.4114,-0.5548,0.1523
17.3,0.3098,-2.5886,9.175,-0.4573,-0.2662,0.144
17.32,0.2199,-2.8875,10.0165,-0.3804,0.4002,0.0587
17.34,1.2206,-2.622,12.2313,-0.0216,0.7647,-0.0001
17.36,1.5751,-2.8829,10.5294,0.3439,0.4158,-0.0503
17.38,1.5341,-2.7049,9.1644,0.465,-0.2656,-0.0927
17.4,1.5013,-2.3431,8.8342,0.4104,-0.5441,-0.1055
17.42,0.9349,-2.5507,8.725,0.18,-0.3498,-0.1022
17.44,1.0679,-2.5051,8.8981,0.0102,0.058,-0.0155
17.46,0.9512,-2.3038,9.3303,-0.1011,0.223,0.029
17.48,0.9051,-2.5133,9.2593,-0.0942,0.1826,0.0233
17.5,0.9637,-2.6616,9.4254,-0.0686,0.0309,0.015
17.52,0.7462,-2.7237,9.35,-0.0288,-0.0405,0.0186
17.54,1.0677,-2.4207,9.5189,0.0202,-0.0343,-0.0017
17.56,0.8177,-2.6864,9.1688,-0.0353,-0.0371,0.0035
17.58,1.1879,-2.3778,9.6478,0.0123,0.0225,0.052
17.6,0.8816,-2.5231,9.3048,0.0156,-0.007,-0.0054
17.62,1.0643,-2.3194,9.6571,0.0602,-0.0315,0.0417
17.64,0.9971,-2.6936,9.1343,0.0493,0.0429,0.0188
17.66,0.8962,-2.8627,8.8848,0.1152,0.171,0.0507
17.68,0.954,-2.8753,8.5011,0.0361,0.2043,-0.0136
17.7,0.7716,-2.7221,8.5737,-0.0746,-0.062,-0.0639
17.72,0.9508,-2.8433,8.5127,-0.2247,-0.4568,-0.0916
17.74,0.6479,-2.709,8.7695,-0.4678,-0.5711,-0.1162
17.76,0.3897,-2.5697,9.4936,-0.4552,-0.0525,-0.1186
17.78,0.3986,-2.3679,11.0364,-0.255,0.6013,-0.0574
17.8,1.4966,-2.0287,11.9733,0.1342,0.7888,0.0384
17.82,1.2435,-2.4306,9.6971,0.4228,0.2091,0.0855
17.84,1.3639,-2.4686,8.6294,0.5195,-0.4512,0.1728
17.86,1.2404,-2.576,8.5739,0.3681,-0.5396,0.116
17.88,0.9202,-2.7743,8.4463,0.0867,-0.205,0.0573
17.9,1.0255,-2.5059,8.6624,-0.0779,0.135,0.0123
17.92,0.7786,-2.7397,8.9484,-0.169,0.213,0.0172
17.94,0.7156,-2.6169,9.1932,-0.1121,0.0856,-0.0122
17.96,0.9011,-2.6483,9.3475,-0.0518,-0.0083,0.0087
17.98,0.8644,-2.5866,9.0797,-0.0141,-0.0639,-0.0356
18.0,0.8775,-2.8773,9.218,-0.0132,-0.0533,-0.0069
18.02,0.7836,-2.8343,9.0979,-0.0012,-0.011,-0.0219
18.04,1.0116,-2.4933,9.2346,0.0187,-0.0012,0.0166
18.06,0.9828,-2.7818,9.2525,0.0009,-0.0756,-0.0281
18.08,1.0005,-2.629,9.3005,0.0638,0.0288,-0.0445
18.1,1.1082,-2.582,8.9202,0.1627,0.1183,-0.0173
18.12,1.0826,-2.8645,8.8232,0.1799,0.2762,0.0024
18.14,1.1205,-2.5141,8.6298,0.0843,0.1734,0.038
18.16,0.6823,-2.4163,8.2241,-0.1657,-0.3244,0.0924
18.18,0.7632,-2.7253,8.384,-0.4661,-0.6777,0.1373
18.2,0.2537,-2.5588,8.7025,-0.6234,-0.4918,0.137
18.22,-0.1724,-3.1166,9.7252,-0.5069,0.346,0.1228
18.24,0.8669,-2.9051,12.3776,-0.0664,0.9724,0.044
18.26,1.7464,-2.4544,12.0692,0.3403,0.7497,-0.1026
18.28,1.7398,-2.516,9.2815,0.6074,-0.1387,-0.1277
18.3,1.1951,-2.7165,8.3397,0.6064,-0.7001,-0.1865
18.32,0.9918,-2.6481,8.494,0.3173,-0.5163,-0.1144
18.34,1.0025,-2.5553,8.5736,0.0345,-0.0189,-0.0759
18.36,0.9771,-2.6914,8.565,-0.1511,0.2692,-0.0404
18.38,0.778,-2.3159,8.9519,-0.1745,0.2155,0.0581
18.4,0.8933,-2.6433,9.2599,-0.0765,0.0577,0.0271
18.42,1.138,-2.6358,9.4483,-0.0215,-0.0623,0.0173
18.44,0.8679,-2.7454,9.2763,-0.0057,-0.0536,0.0014
18.46,0.8736,-2.7172,9.3168,-0.015,0.001,0.0194
18.48,1.0571,-2.5728,9.4376,0.0233,-0.014,0.01
18.5,0.8853,-2.7131,9.2524,0.0035,-0.0574,-0.0185
18.52,1.1518,-2.5611,9.4943,0.0726,-0.0176,0.0594
18.54,0.9979,-2.5221,9.1833,0.1216,0.1108,0.0226
18.56,0.9888,-2.5741,9.0134,0.1649,0.2241,0.0213
18.58,1.0013,-2.6939,8.6216,0.1425,0.2214,-0.0084
18.6,0.8024,-2.6006,8.7088,-0.0377,-0.0648,-0.0374
18.62,0.6576,-2.9484,8.2044,-0.3983,-0.616,-0.1458
18.64,0.6382,-2.4764,8.4796,-0.6252,-0.7005,-0.1713
18.66,0.2459,-2.4123,9.4641,-0.6142,-0.0305,-0.1428
18.68,-0.1116,-2.3189,11.1073,-0.3231,0.813,-0.1116
18.7,1.2395,-2.2135,12.4092,0.1534,0.976,0.0123
18.72,1.9431,-2.2503,10.4232,0.5831,0.2531,0.0928
18.74,1.5104,-2.5763,8.5052,0.6597,-0.5514,0.1698
18.76,1.2085,-2.8444,8.3227,0.4472,-0.7212,0.1608
18.78,1.1635,-2.488,8.6027,0.1369,-0.2496,0.1179
18.8,0.8665,-2.7662,8.9132,-0.086,0.2176,0.0258
18.82,0.8668,-2.7011,8.8799,-0.2006,0.2636,0.0003
18.84,0.8564,-2.6321,8.9803,-0.1641,0.0948,-0.0106
18.86,0.8369,-2.6377,9.4503,-0.0839,-0.0335,-0.0007
18.88,1.1207,-2.5283,9.5814,0.0317,-0.0043,-0.0154
18.9,0.8998,-2.715,9.5386,0.0054,-0.0038,0.0031
18.92,1.1208,-2.4117,9.5778,0.0308,0.0371,0.0433
18.94,1.1481,-2.3671,9.4968,0.0297,-0.0403,0.0148
18.96,0.7762,-2.676,9.4147,-0.0271,-0.0283,-0.0383
18.98,1.0919,-2.478,9.6839,0.0313,-0.0268,-0.0265
19.0,1.2055,-2.5269,9.4761,0.1191,0.098,0.0123
19.02,1.2469,-2.7325,8.9747,0.1504,0.2841,0.002
19.04,0.9321,-2.4441,8.7155,0.0814,0.1882,-0.0041
19.06,0.9495,-2.1326,8.5989,-0.0984,-0.2008,0.1328
19.08,0.4336,-2.7024,8.1419,-0.4625,-0.6635,0.1289
19.1,0.2674,-2.7857,8.7111,-0.6751,-0.5786,0.1719
19.12,0.2883,-2.6339,10.4293,-0.5331,0.1957,0.1585
19.14,0.199,-3.0418,11.6621,-0.2283,0.926,0.0328
19.16,1.7847,-2.5514,12.3332,0.2551,0.8568,-0.0059
19.18,1.7403,-2.6459,9.6409,0.5961,-0.0191,-0.1247
19.2,1.5799,-2.5989,8.6148,0.6432,-0.6454,-0.1501
19.22,1.1942,-2.4825,8.513,0.3589,-0.6162,-0.1404
19.24,1.1875,-2.5279,8.442,0.048,-0.1044,-0.0639
19.26,1.0638,-2.4783,8.7969,-0.1262,0.3131,-0.0186
19.28,0.8244,-2.5326,9.3493,-0.1484,0.2469,-0.0289
19.3,0.9253,-2.8819,9.2588,-0.1498,0.0545,0.0295
19.32,0.9969,-2.569,9.3947,-0.052,-0.0158,0.0237
19.34,0.7009,-2.5074,9.3415,-0.0249,-0.0607,-0.0066
19.36,0.8868,-2.6621,9.3126,-0.0362,-0.0135,-0.0126
19.38,0.8219,-2.4927,9.4955,0.0413,-0.0423,0.035
19.4,1.1226,-2.5051,9.66,0.0175,-0.0366,0.0181
19.42,0.9786,-2.5428,9.2496,0.0556,0.0095,0.0527
19.44,1.0465,-2.4444,9.3222,0.1264,0.1571,0.0203
19.46,1.3497,-2.4794,8.8567,0.1203,0.2382,-0.0064
19.48,1.0862,-2.6991,8.9975,0.0381,0.0874,-0.0227
19.5,0.8446,-2.7774,8.709,-0.208,-0.3938,-0.0848
19.52,0.3745,-2.6614,8.3955,-0.475,-0.6054,-0.1398
19.54,0.2588,-2.4017,8.9689,-0.5636,-0.2822,-0.126
19.56,0.5112,-2.4808,10.9334,-0.4342,0.4367,-0.1149
19.58,1.2771,-2.2314,12.4607,-0.0027,0.8658,-0.0055
19.6,1.1237,-2.7074,10.331,0.322,0.4675,0.1139
19.62,1.7355,-2.3943,9.0109,0.5338,-0.2503,0.162
19.64,1.632,-2.5577,8.7107,0.5019,-0.6093,0.1922
19.66,1.1354,-2.71,8.5668,0.2034,-0.3865,0.1044
19.68,0.9167,-2.5939,8.6176,-0.0333,0.0368,0.0481
19.7,0.7711,-2.8075,9.0952,-0.1539,0.2443,-0.0194
19.72,0.7618,-2.5327,9.1504,-0.1162,0.1546,-0.015
19.74,0.7261,-2.6062,9.2172,-0.0907,0.0243,-0.0175
19.76,0.9543,-2.8181,9.3325,-0.0101,-0.0652,-0.0183
19.78,0.7893,-2.8169,9.0904,-0.0695,-0.0526,-0.0219
19.8,0.827,-2.7128,9.217,-0.0072,0.0085,0.0003
19.82,0.6012,-2.5137,9.0711,-0.0063,0.0069,-0.0087
19.84,0.7618,-2.816,9.2468,0.0085,-0.0186,0.0112
19.86,0.9003,-2.5483,9.549,0.0135,-0.0362,0.002
19.88,0.9686,-2.6794,9.1503,0.0524,0.0054,0.0031
19.9,1.0343,-2.4686,8.9403,0.0754,0.0996,-0.0308
19.92,1.0678,-2.6221,8.7052,0.163,0.2734,-0.0259
19.94,0.744,-2.3687,8.7942,0.0867,0.1731,0.0248
19.96,0.8968,-2.5171,8.4815,-0.0906,-0.2208,0.1197
19.98,0.568,-2.3564,8.305,-0.4029,-0.6483,0.1124
20.0,0.0813,-2.7409,8.3663,-0.6104,-0.4855,0.1552
20.02,0.3298,-2.721,10.5827,-0.4802,0.2745,0.1264
20.04,0.7285,-2.9471,12.0422,-0.1276,0.8517,0.0194
20.06,1.1938,-3.1294,11.1073,0.2529,0.7258,-0.0768
20.08,1.5121,-2.8392,9.2358,0.551,-0.0703,-0.1353
20.1,1.2943,-2.6645,8.223,0.5331,-0.6061,-0.1659
20.12,1.0378,-2.4611,8.4211,0.288,-0.5251,-0.1082
20.14,0.8681,-2.4282,8.5804,0.0344,-0.0629,-0.0743
20.16,0.5598,-2.5316,8.5544,-0.1469,0.2856,-0.0113
20.18,0.8327,-2.8573,8.78,-0.1674,0.2012,0.0251
20.2,0.8686,-2.6648,9.1694,-0.1003,0.0301,0.041
20.22,0.883,-2.7282,9.1586,-0.0288,-0.0684,0.0418
20.24,0.8583,-2.6821,8.9941,-0.0222,-0.0519,0.0275
20.26,0.9069,-2.7162,8.8675,-0.0007,0.0102,-0.0325
20.28,0.8014,-2.5146,9.2492,-0.0048,0.0007,0.0118
20.3,0.6729,-2.4643,9.033,-0.0232,-0.0207,-0.0012
20.32,0.9318,-2.6453,9.0376,-0.0081,-0.0396,0.0045
20.34,0.9075,-2.764,9.3446,0.0247,-0.0232,0.0183
20.36,1.1619,-2.6675,9.1169,0.0942,0.0534,0.0553
20.38,1.0637,-2.7133,9.008,0.12,0.1512,0.0436
20.4,1.1079,-2.6285,8.9395,0.1481,0.2493,0.013
20.42,0.7422,-2.9456,8.3693,-0.0374,0.0241,-0.0834
20.44,0.8286,-2.6434,8.642,-0.2083,-0.3564,-0.0782
20.46,0.4658,-2.6076,8.3804,-0.4233,-0.5685,-0.1341
20.48,0.0797,-2.3788,9.1179,-0.4901,-0.1887,-0.0703
20.5,0.2378,-2.5628,10.7855,-0.3319,0.4805,-0.0407
20.52,0.589,-2.3439,11.5427,0.0205,0.8031,-0.0159
20.54,1.7594,-2.2325,10.9887,0.3325,0.3759,0.1073
20.56,1.6545,-2.4062,9.0351,0.5198,-0.2907,0.1216
20.58,1.1755,-2.6036,8.7941,0.4022,-0.5372,0.1144
20.6,0.7412,-2.5998,8.4199,0.1454,-0.3319,0.0627
20.62,0.9334,-2.8255,8.8758,-0.0393,0.0644,0.0363
20.64,0.7873,-2.7048,8.8781,-0.1361,0.2162,-0.0094
20.66,0.5532,-2.767,8.6904,-0.1373,0.1394,-0.054
20.68,0.925,-2.5351,9.5024,0.0093,0.0595,-0.0202
20.7,0.8757,-2.7557,9.2862,-0.037,-0.061,-0.0303
20.72,0.998,-2.6358,9.2743,-0.0073,-0.0419,-0.0006
20.74,0.9595,-2.5075,9.2825,-0.0047,0.0166,-0.0335
20.76,0.7112,-2.769,9.0772,-0.0313,-0.0197,-0.0023
20.78,0.7776,-2.4635,9.2002,-0.0062,-0.0097,0.0154
20.8,0.9715,-2.5705,9.4121,-0.0068,-0.0576,-0.0225
20.82,1.2929,-2.4509,9.3248,0.0573,-0.0239,-0.0052
20.84,0.8265,-2.5893,9.2101,0.0738,0.0808,-0.0102
20.86,1.3568,-2.564,9.1392,0.1507,0.2452,0.0123
20.88,0.8899,-2.6376,8.7927,0.0859,0.1601,0.0289
20.9,0.6875,-2.3631,8.7248,-0.1199,-0.1802,0.0297
20.92,0.8489,-2.6067,8.6761,-0.3332,-0.5178,0.1267
20.94,0.5365,-2.8275,8.6341,-0.5194,-0.4404,0.1363
20.96,-0.0594,-2.9263,9.8286,-0.4398,0.1846,0.1114
20.98,0.529,-2.9962,11.3833,-0.1402,0.7234,0.0085
21.0,1.6971,-2.6955,11.8797,0.206,0.5991,-0.0351
21.02,1.4931,-3.0192,9.2164,0.4231,-0.0018,-0.1203
21.04,1.5325,-2.4935,8.7,0.4403,-0.5287,-0.123
21.06,1.0327,-2.3932,8.7065,0.264,-0.4521,-0.1131
21.08,0.7819,-2.5935,8.7604,0.0346,-0.0726,-0.0784
21.1,1.023,-2.5982,9.0041,-0.1444,0.1958,-0.0512
21.12,1.0718,-2.6102,9.2754,-0.1113,0.1886,0.0028
21.14,0.748,-2.6936,9.1216,-0.1097,0.0207,0.0328
21.16,1.0423,-2.5463,9.5237,-0.018,-0.0533,0.0202
21.18,1.2031,-2.5235,9.638,0.0022,0.0169,0.0211
21.2,1.2917,-2.5371,9.5214,0.0286,0.0329,0.0252
21.22,1.0455,-2.4445,9.5504,0.0056,0.0137,-0.0058
21.24,0.8036,-2.5971,9.4368,0.0106,-0.0199,-0.0078
21.26,1.1835,-2.4755,9.5824,0.0122,-0.041,0.0398
21.28,1.3414,-2.6873,9.39,0.0422,-0.0046,0.0436
21.3,1.137,-2.8343,9.0411,0.0979,0.1116,-0.0007
21.32,0.8458,-2.6294,8.472,0.0941,0.2202,0.0163
21.34,1.1233,-2.6092,8.7979,0.0593,0.1519,-0.0316
21.36,1.0844,-2.6057,8.6521,-0.1344,-0.2931,-0.0855
21.38,0.5206,-2.4,8.7048,-0.4273,-0.608,-0.1482
21.4,0.068,-2.346,8.9094,-0.5466,-0.3806,-0.1385
21.42,0.1238,-2.3603,10.3805,-0.4146,0.3694,-0.0795
21.44,0.7294,-2.4404,11.9065,-0.1037,0.8642,-0.0414
21.46,2.0863,-2.2321,11.9028,0.3378,0.5535,0.0645
21.48,1.597,-2.5362,9.4927,0.5079,-0.1674,0.1638
21.5,1.2633,-2.3401,8.8074,0.5044,-0.5591,0.1458
21.52,1.0298,-2.6372,8.6138,0.2226,-0.4277,0.0911
21.54,1.2146,-2.5363,8.5604,-0.0247,0.027,0.0648
21.56,1.1139,-2.6131,9.1902,-0.1284,0.254,0.0403
21.58,0.8552,-2.6471,8.7652,-0.1805,0.1521,-0.0394
21.6,0.9448,-2.5197,9.4316,-0.0852,0.0517,-0.0434
21.62,1.1848,-2.5051,9.6158,-0.0312,-0.017,0.0355
21.64,1.0587,-2.5521,9.2627,-0.0203,-0.0289,-0.0236
21.66,0.7827,-2.4699,9.4704,0.0267,0.0308,-0.005
21.68,1.0735,-2.3384,9.9004,0.0696,0.0424,0.0148
21.7,0.7653,-2.5328,9.5218,-0.0269,-0.0393,-0.0188
21.72,1.1918,-2.5826,9.6553,0.0288,0.0023,0.0074
21.74,1.1343,-2.3902,9.89,0.0521,-0.0202,-0.0102
21.76,1.0595,-2.431,9.0875,0.1304,0.137,-0.028
21.78,0.802,-2.618,8.6878,0.1176,0.2513,-0.016
21.8,0.9721,-2.5663,8.7817,0.0989,0.1392,0.0465
21.82,0.6699,-2.4719,8.4981,-0.158,-0.2952,0.1014
21.84,0.9489,-2.5266,8.4487,-0.4387,-0.6689,0.1593
21.86,-0.0466,-2.7891,8.6071,-0.6332,-0.4736,0.1557
21.88,-0.1176,-2.7962,10.1009,-0.5196,0.3605,0.1209
21.9,1.0218,-2.998,12.6905,-0.0664,0.9486,0.0205
21.92,1.9419,-2.8801,11.8077,0.3147,0.6264,-0.0843
21.94,1.4668,-2.8034,9.3829,0.5851,-0.1234,-0.112
21.96,1.4785,-2.5138,8.2951,0.5127,-0.6673,-0.1262
21.98,1.0106,-2.5499,8.3646,0.2999,-0.5128,-0.1257
22.0,0.952,-2.527,8.4734,-0.0085,0.0003,-0.041
22.02,0.8696,-2.5854,8.6508,-0.1433,0.2286,-0.0037
22.04,0.5398,-2.5017,8.9065,-0.1333,0.2178,-0.0041
22.06,0.7457,-2.4454,9.2276,-0.0716,0.037,0.0096
22.08,0.8566,-2.6073,9.2794,-0.0417,-0.0849,-0.012
22.1,0.7885,-2.3581,9.0827,-0.0436,-0.0524,0.0037
22.12,1.0597,-2.6588,9.255,0.0181,0.0383,-0.0015
22.14,0.436,-2.9566,9.1627,-0.0703,0.0156,-0.0406
22.16,0.4962,-2.671,9.3487,0.0025,-0.0114,0.0431
22.18,1.1518,-2.4556,9.5195,0.0571,-0.0076,0.0065
22.2,0.718,-2.7161,8.9326,0.0479,0.0496,0.0241
22.22,0.8739,-2.8847,8.7198,0.1259,0.1964,0.0271
22.24,0.9806,-2.8118,8.6834,0.1347,0.2681,-0.0173
22.26,1.0958,-2.6607,8.2638,-0.04,-0.0599,-0.0749
22.28,0.8701,-2.7479,8.5318,-0.2961,-0.5142,-0.1152
22.3,0.126,-2.5128,8.0381,-0.5721,-0.694,-0.1816
22.32,0.2005,-2.3366,9.3507,-0.56,-0.093,-0.1469
22.34,-0.2003,-2.4957,10.9914,-0.3079,0.6999,-0.0862
22.36,1.262,-2.4026,12.5349,0.1502,0.9031,0.0406
22.38,1.6169,-2.1783,10.3771,0.495,0.2558,0.1217
22.4,1.166,-2.3642,8.4767,0.5395,-0.441,0.1282
22.42,0.9779,-2.7932,7.9949,0.3703,-0.6652,0.1498
22.44,1.1177,-2.5691,8.6278,0.1403,-0.2529,0.1389
22.46,0.8083,-2.8692,8.5442,-0.0357,0.1835,0.0162
22.48,1.0251,-2.5424,9.1013,-0.1295,0.266,-0.0229
22.5,0.5809,-2.6669,9.2037,-0.1152,0.1287,-0.0136
22.52,0.8218,-2.6333,9.1162,-0.0394,0.0095,-0.0086
22.54,0.6814,-2.5953,9.1945,-0.0319,-0.0699,-0.0637
22.56,0.8701,-2.5716,9.4034,-0.0257,-0.005,0.0109
22.58,1.1239,-2.6898,9.3002,0.0227,-0.0432,0.0242
22.6,1.0458,-2.4722,9.296,0.0428,0.004,-0.0199
22.62,1.1045,-2.4296,9.2003,0.066,0.0128,0.0035
22.64,1.0062,-2.5905,8.911,0.1745,0.189,-0.0053
22.66,0.8166,-2.3377,8.7519,0.1155,0.2603,0.0157
22.68,0.8196,-2.5515,8.3647,0.0407,0.0465,0.0196
22.7,0.8777,-2.4645,8.3894,-0.2329,-0.3986,0.1147
22.72,0.5607,-2.4264,8.5003,-0.4767,-0.6403,0.1501
22.74,0.0937,-2.7761,8.8181,-0.5986,-0.2987,0.1158
22.76,0.1091,-2.7905,10.7946,-0.3967,0.4903,0.0741
22.78,0.9727,-2.8346,12.3877,0.0257,0.8704,0.0076
22.8,1.2461,-2.9415,10.4597,0.4223,0.4685,-0.0965
22.82,1.5948,-2.6959,8.8714,0.5606,-0.305,-0.1531
22.84,1.3635,-2.4832,8.6543,0.4506,-0.621,-0.1011
22.86,1.0035,-2.7285,8.4893,0.1736,-0.3403,-0.1034
22.88,0.9818,-2.5869,8.6724,-0.0525,0.0794,-0.0561
22.9,0.5918,-2.5074,8.7918,-0.1605,0.2589,-0.0016
22.92,0.7158,-2.4296,9.2493,-0.112,0.1864,0.0045
22.94,0.9935,-2.6084,9.4078,-0.088,0.0264,0.0353
22.96,0.9861,-2.5649,9.4212,-0.033,-0.0403,0.0309
22.98,0.5765,-2.4397,9.4958,-0.0113,-0.0654,0.0033
23.0,1.0342,-2.7036,9.2242,-0.0234,-0.0325,-0.0294
23.02,0.6327,-2.6411,9.0868,-0.012,0.0003,-0.0314
23.04,1.1154,-2.5911,9.5943,0.0075,0.0378,0.0244
23.06,1.2282,-2.6597,9.4874,-0.021,-0.0188,0.0173
23.08,0.7642,-2.4639,9.3028,0.0137,-0.0501,-0.0133
23.1,1.0929,-2.5743,9.3286,0.0603,0.0178,0.0121
23.12,1.015,-2.5184,9.0915,0.1257,0.2215,0.0341
23.14,0.8862,-2.5287,8.9193,0.1597,0.2684,-0.0025
23.16,0.9545,-2.7341,8.5281,-0.0164,0.048,-0.037
23.18,0.8427,-2.5202,8.7643,-0.2299,-0.4522,-0.1156
23.2,0.6873,-2.6039,8.5258,-0.5185,-0.7071,-0.1222
23.22,0.1396,-2.4811,8.9194,-0.6489,-0.267,-0.154
23.24,0.594,-2.3991,11.5518,-0.4096,0.614,-0.1059
23.26,0.7351,-2.3301,12.4111,0.0135,0.9926,0.0372
23.28,2.1314,-2.0285,11.6028,0.4689,0.4483,0.1169
23.3,1.8796,-2.29,9.0171,0.6391,-0.3576,0.1626
23.32,1.5096,-2.5675,8.7725,0.5147,-0.7214,0.1472
23.34,0.8725,-2.3165,8.4247,0.1895,-0.3921,0.1181
23.36,1.0577,-2.4663,8.5798,-0.0579,0.0943,0.0295
23.38,1.0504,-2.8651,9.06,-0.1801,0.272,0.0099
23.4,0.7808,-2.4124,9.0585,-0.1921,0.2132,-0.0407
23.42,0.6251,-2.7123,9.3017,-0.0685,0.0102,-0.0102
23.44,0.991,-2.3495,9.5394,-0.0194,-0.0447,0.0027
23.46,1.1399,-2.5706,9.5943,-0.013,0.0057,-0.0069
23.48,1.0293,-2.5626,9.169,-0.0081,0.0034,-0.03
23.5,0.7694,-2.5219,9.4058,-0.0606,-0.0224,-0.0155
23.52,1.1644,-2.4561,9.5715,0.0387,-0.0452,-0.0087
23.54,1.04,-2.5459,9.3629,0.0397,-0.0078,-0.0208
23.56,1.237,-2.5636,9.2646,0.0622,0.1105,-0.0636
23.58,0.9996,-2.6749,8.9895,0.1197,0.2494,-0.0119
23.6,0.8001,-2.5325,8.713,0.0527,0.1995,0.0074
23.62,0.8516,-2.6391,8.5347,-0.1185,-0.1785,0.1046
23.64,0.7611,-2.4649,8.6465,-0.3516,-0.5725,0.131
23.66,0.47,-2.6687,8.7644,-0.5402,-0.4947,0.1377
23.68,0.1949,-2.4312,10.7179,-0.5054,0.1641,0.1103
23.7,0.6424,-3.0897,12.5172,-0.1582,0.8364,0.0361
23.72,1.1065,-2.9309,11.5369,0.2086,0.7544,-0.0637
23.74,1.9058,-2.5092,10.1277,0.4895,0.0651,-0.091
23.76,1.5832,-2.6542,8.5883,0.5697,-0.589,-0.1765
23.78,1.1993,-2.3025,8.5997,0.3037,-0.5467,-0.1007
23.8,0.8753,-2.6864,8.4158,0.0152,-0.111,-0.0892
23.82,0.9697,-2.6473,8.591,-0.118,0.2153,-0.0123
23.84,1.1451,-2.443,9.2411,-0.1389,0.2451,0.0153
23.86,0.8055,-2.4333,9.0317,-0.1166,0.0529,0.0073
23.88,0.9127,-2.3414,9.4212,-0.0217,-0.009,-0.0012
23.9,0.7962,-2.4916,9.5009,-0.0228,-0.0304,0.0102
23.92,0.9929,-2.7174,9.4097,-0.0327,-0.0194,-0.003
23.94,0.8125,-2.6516,9.1879,-0.0411,0.0042,0.0061
23.96,0.9152,-2.7322,9.386,-0.0078,0.009,-0.0143
23.98,1.0201,-2.3998,9.5521,0.0123,-0.0533,0.0211
24.0,1.028,-2.627,9.0723,0.0198,-0.0399,0.0403
24.02,1.2106,-2.6513,9.2231,0.134,0.121,0.0101
24.04,0.9305,-2.7567,9.0341,0.1814,0.2509,0.0104
24.06,1.1314,-2.5616,8.6491,0.1159,0.2008,-0.0407
24.08,0.8947,-2.5504,8.5549,-0.0995,-0.2065,-0.0339
24.1,0.3041,-2.8558,8.0334,-0.4356,-0.7209,-0.1552
24.12,0.1917,-2.6437,8.4417,-0.647,-0.5828,-0.18
24.14,0.3768,-2.1677,10.5128,-0.5667,0.2474,-0.1058
24.16,0.3443,-2.3969,12.1897,-0.2301,0.9536,-0.037
24.18,1.3193,-2.2053,11.7249,0.3026,0.8222,0.0868
24.2,1.9454,-2.2633,9.6989,0.5994,-0.0369,0.1327
24.22,1.4885,-2.688,8.439,0.6015,-0.6235,0.1532
24.24,1.1354,-2.8066,8.0975,0.3488,-0.6128,0.1478
24.26,1.0595,-2.7369,8.6077,0.0262,-0.0383,0.0557
24.28,0.3499,-2.863,8.3884,-0.1765,0.2268,0.0053
24.3,0.7696,-2.8084,8.9556,-0.1858,0.2598,-0.0273
24.32,0.8197,-2.7985,9.1155,-0.134,0.059,-0.0074
24.34,0.8319,-2.8307,9.268,-0.0595,-0.0452,-0.0136
24.36,0.8853,-2.9159,9.1896,-0.0523,-0.042,-0.0459
24.38,0.7911,-2.5873,8.9545,0.0085,-0.0262,0.0082
24.4,1.0704,-2.4666,9.3954,0.011,0.0342,0.0306
24.42,0.7708,-2.5996,9.2996,-0.0446,-0.0427,-0.0167
24.44,1.0054,-2.6112,9.4154,0.0163,-0.0479,0.0076
24.46,1.2626,-2.5757,9.3849,0.0579,-0.0099,-0.0109
24.48,1.1877,-2.5015,8.9826,0.1362,0.1167,-0.0147
24.5,0.6752,-2.4634,8.7931,0.1902,0.2737,-0.0336
24.52,0.9543,-2.3343,8.8213,0.0925,0.1965,0.0635
24.54,0.8446,-2.6149,8.2842,-0.1693,-0.2908,0.0613
24.56,0.5655,-2.5209,8.3216,-0.4539,-0.6746,0.1097
24.58,0.3559,-2.7954,8.5206,-0.6084,-0.4566,0.1552
24.6,0.4501,-2.6384,10.6373,-0.518,0.3384,0.1062
24.62,0.6851,-2.9336,12.0982,-0.1491,0.9154,0.0378
24.64,1.3594,-2.9387,11.0863,0.3117,0.6798,-0.0837
24.66,1.433,-2.6538,9.1984,0.5898,-0.109,-0.1493
24.68,1.3667,-2.4375,8.6743,0.5534,-0.6132,-0.1147
24.7,1.0653,-2.5183,8.5455,0.337,-0.4729,-0.0911
24.72,0.8474,-2.5204,8.4151,0.0229,-0.0695,-0.0868
24.74,0.8052,-2.5778,8.8414,-0.1727,0.2487,0.0287
24.76,1.0568,-2.5183,9.2994,-0.1453,0.2406,0.0089
24.78,1.0331,-2.6754,9.4161,-0.0743,0.0791,0.0351
24.8,0.6417,-2.993,8.9785,-0.1051,-0.0493,-0.0318
24.82,1.175,-2.6212,9.3443,-0.0312,-0.0045,0.0339
24.84,1.0378,-2.6747,9.2848,-0.0164,0.0254,0.008
24.86,0.7974,-2.6127,9.0272,-0.0252,-0.0277,-0.059
24.88,1.0895,-2.4899,9.2999,-0.0259,-0.0205,-0.0066
24.9,0.8073,-2.5914,9.3584,0.009,-0.023,0.0244
24.92,1.0773,-2.5455,9.2731,0.1069,0.007,0.0398
24.94,1.2205,-2.4643,9.3683,0.1449,0.1435,0.0625
24.96,1.2167,-2.9078,8.7546,0.1523,0.2768,0.0068
24.98,0.8826,-2.7343,8.7848,0.052,0.1308,-0.0395
25.0,1.05,-2.693,8.4383,-0.1832,-0.3473,-0.0688
25.02,0.8062,-2.2233,8.689,-0.445,-0.6883,-0.1426
25.04,0.3989,-2.3981,8.8129,-0.5624,-0.3872,-0.1502
25.06,0.6231,-2.1433,11.5639,-0.464,0.4054,-0.0918
25.08,0.3646,-2.476,12.1466,-0.0791,0.9347,-0.0014
25.1,1.5908,-2.4602,10.9203,0.3005,0.5895,0.0981
25.12,1.9644,-2.6383,9.3179,0.5715,-0.212,0.1571
25.14,1.7089,-2.3284,8.6051,0.5499,-0.6589,0.1736
25.16,1.2828,-2.6621,8.347,0.2227,-0.4874,0.1003
25.18,1.0875,-2.6751,8.6975,-0.0405,0.0043,0.0675
25.2,1.0685,-2.5804,8.9723,-0.1529,0.2656,0.0201
25.22,0.928,-2.7093,9.149,-0.1448,0.1969,-0.0422
25.24,1.0495,-2.4641,9.5619,-0.1095,0.0406,-0.0246
25.26,1.1751,-2.7686,9.4312,-0.0433,-0.0738,0.0135
25.28,1.3375,-2.575,9.6374,0.014,-0.0126,-0.0102
25.3,1.3144,-2.3567,9.3452,0.0092,0.018,-0.0016
25.32,0.9668,-2.6869,9.2107,-0.0106,0.0575,0.0087
25.34,1.1036,-2.4696,9.5785,-0.0308,-0.0229,0.0143
25.36,0.9574,-2.7627,9.4179,-0.0062,-0.0565,-0.0648
25.38,1.1443,-2.6932,9.424,0.063,-0.006,-0.0245
25.4,1.0809,-2.5509,9.2723,0.1312,0.1789,0.0137
25.42,1.2796,-2.464,9.0445,0.1106,0.2881,0.0277
25.44,0.8581,-2.7721,8.5543,-0.0026,0.0705,0.0395
25.46,1.1872,-2.3752,8.5733,-0.2542,-0.4271,0.0821
25.48,1.0185,-2.6347,8.6705,-0.4378,-0.6092,0.1829
25.5,0.4543,-2.4959,9.4347,-0.5612,-0.2383,0.1829
25.52,0.9043,-2.9683,11.67,-0.3687,0.5163,0.0654
25.54,1.0136,-2.9362,12.2852,0.0133,0.8937,-0.0083
25.56,1.8535,-2.8237,11.0256,0.3984,0.4437,-0.0912
25.58,1.9478,-2.6104,8.8964,0.5746,-0.2815,-0.1213
25.6,1.5535,-2.5501,8.7136,0.4557,-0.6384,-0.1209
25.62,1.3703,-2.4744,8.6029,0.1989,-0.3527,-0.0806
25.64,1.2824,-2.5281,8.6455,-0.0578,0.0825,-0.0364
25.66,0.8455,-2.5327,8.8966,-0.1718,0.2643,0.0152
25.68,0.9909,-2.6709,8.9003,-0.1453,0.1516,0.0269
25.7,0.9399,-2.7183,9.244,-0.1031,0.0215,0.0018
25.72,1.3993,-2.2336,9.6182,0.007,-0.039,0.0076
25.74,1.0693,-2.8239,9.484,-0.0422,-0.0194,0.0091
25.76,1.1014,-2.6407,9.2422,-0.0165,-0.0182,0.0005
25.78,1.6258,-2.3997,9.7616,0.0465,0.0564,0.0126
25.8,1.1507,-2.5664,9.3787,-0.0256,0.0062,-0.0046
25.82,1.2343,-2.723,9.5201,0.0145,-0.0332,0.007
25.84,1.3433,-2.6351,9.5187,0.067,-0.02,0.0593
25.86,1.6,-2.9175,9.349,0.1083,0.0905,0.0071
25.88,1.2296,-2.8283,9.0682,0.1377,0.258,0.028
25.9,1.5188,-2.5292,8.9722,0.0989,0.1863,-0.0133
25.92,1.1531,-2.881,8.7632,-0.0889,-0.2034,-0.0743
25.94,0.8227,-2.6073,8.6682,-0.3646,-0.5424,-0.1516
25.96,0.466,-2.6646,8.7521,-0.549,-0.4708,-0.1399
25.98,0.7056,-2.4852,10.3945,-0.4507,0.2179,-0.1264
26.0,0.6381,-2.5772,11.6127,-0.1174,0.7937,-0.0259
26.02,1.7121,-2.4305,11.9706,0.2622,0.6824,0.0246
26.04,1.8107,-2.5795,9.6062,0.4643,-0.0293,0.128
26.06,1.8023,-2.8159,8.4461,0.4218,-0.548,0.1375
26.08,1.3627,-2.8255,8.4567,0.2892,-0.4651,0.1199
26.1,1.269,-3.0239,8.9405,0.0504,-0.0406,0.0921
26.12,1.0353,-2.9753,8.734,-0.1452,0.2228,-0.0077
26.14,0.5366,-3.0049,8.9647,-0.1615,0.1993,0.0177
26.16,0.9407,-2.6617,9.3219,-0.1211,0.0693,-0.0094
26.18,0.9612,-2.8377,9.2111,-0.0452,-0.0159,-0.0309
26.2,1.0506,-2.4284,8.9654,-0.0203,-0.0486,-0.0169
26.22,1.0935,-2.3333,9.0955,0.0124,-0.0026,-0.0012
26.24,0.9022,-2.6335,8.9768,-0.0466,-0.0328,0.0051
26.26,1.2035,-2.7615,9.3879,-0.0244,-0.0349,-0.0109
26.28,1.2344,-2.6782,9.4191,-0.0068,-0.0434,-0.0328
26.3,1.2525,-2.7137,9.1346,0.0542,-0.0079,-0.0244
26.32,1.0336,-2.7098,8.9499,0.119,0.1435,-0.0257
26.34,1.5471,-2.5784,9.025,0.1415,0.2866,0.0075
26.36,1.1871,-2.3884,8.6518,-0.0086,0.0798,0.0604
26.38,1.1285,-2.9693,8.4746,-0.179,-0.3374,0.0643
26.4,0.7742,-2.8897,8.2547,-0.4613,-0.6572,0.1537
26.42,0.3275,-2.8121,8.3819,-0.5911,-0.3287,0.1353
26.44,0.5673,-2.7351,10.9107,-0.4364,0.4432,0.0823
26.46,0.9534,-3.2895,12.029,-0.0541,0.9273,0.0008
26.48,2.1802,-2.4017,11.6043,0.3755,0.5689,-0.0977
26.5,1.8399,-2.6495,9.0181,0.586,-0.2469,-0.1344
26.52,1.4797,-2.7421,8.6349,0.4936,-0.6087,-0.1502
26.54,1.1702,-2.761,8.2078,0.1996,-0.397,-0.0927
26.56,1.1576,-2.7682,8.4789,-0.0457,0.0647,-0.056
26.58,0.8454,-2.5198,8.8862,-0.133,0.2685,-0.0209
26.6,1.1676,-2.7036,8.9681,-0.167,0.1619,0.037
26.62,1.0493,-2.5629,9.2862,-0.084,0.0485,0.0483
26.64,0.9013,-2.7762,9.3391,-0.0604,-0.033,0.0216
26.66,1.2308,-2.4412,9.553,-0.0338,-0.0462,0.0472
26.68,1.2058,-2.722,9.1103,0.0094,0.0099,0.0057
26.7,1.5228,-2.6361,9.6858,0.0277,0.0099,-0.0057
26.72,1.1942,-2.7518,9.5246,0.017,-0.0431,0.0287
26.74,1.1979,-2.6865,9.1312,0.0323,-0.0817,-0.0307
26.76,1.2752,-2.5524,9.0955,0.0924,0.0294,0.0516
26.78,1.3259,-2.5302,9.1801,0.1787,0.2378,-0.0042
26.8,1.1798,-2.5938,8.8782,0.1407,0.2883,0.0301
26.82,1.389,-2.731,8.6776,-0.0153,-0.0092,-0.0512
26.84,0.9357,-2.7306,8.2805,-0.3536,-0.5385,-0.1366
26.86,0.5352,-2.7426,8.3691,-0.5893,-0.6926,-0.1756
26.88,0.0581,-2.6642,8.9778,-0.6493,-0.1394,-0.1692
26.9,0.3676,-2.4523,11.7328,-0.3417,0.7305,-0.0724
26.92,1.201,-2.6684,12.3231,0.1479,0.9884,-0.0023
26.94,2.4052,-2.2645,11.3125,0.5029,0.3578,0.0907
26.96,2.1233,-2.4437,8.9829,0.6415,-0.4339,0.1605
26.98,1.3042,-3.051,7.7939,0.4036,-0.6923,0.1434
27.0,0.6859,-2.9977,7.7027,0.0773,-0.3494,0.0997
27.02,1.0418,-2.8002,8.8619,-0.0522,0.202,0.05
27.04,0.457,-3.0508,8.1128,-0.2211,0.2424,-0.0074
27.06,1.5201,-2.7267,9.698,-0.0506,0.147,-0.0221
27.08,1.5498,-2.6246,10.0667,-0.0044,0.031,-0.0116
27.1,0.6474,-2.9553,8.6488,-0.0953,-0.0866,0.0054
27.12,1.3048,-2.4332,9.7929,0.0274,-0.0275,-0.02
27.14,1.556,-2.3456,9.8989,0.0411,0.0115,-0.0189
27.16,1.0736,-2.8462,9.0558,-0.0399,0.0295,0.0046
27.18,0.5096,-2.5376,8.7386,-0.0303,-0.0504,-0.0351
27.2,0.8978,-3.1017,8.6026,-0.0643,-0.0845,-0.0373
27.22,1.4909,-2.4831,9.5115,0.0769,-0.0127,-0.0284
27.24,2.3097,-2.2698,10.2877,0.1581,0.1501,-0.0123
27.26,1.2159,-2.7785,8.694,0.0906,0.2113,-0.0308
27.28,0.902,-2.7134,8.3561,0.0422,0.1569,0.0156
27.3,1.6027,-2.3124,9.6422,-0.0067,-0.1152,0.0714
27.32,0.8528,-2.8796,8.0103,-0.3944,-0.5666,0.1401
27.34,0.5769,-2.5821,8.6771,-0.5779,-0.4944,0.1811
27.36,0.4447,-2.6516,10.2406,-0.4884,0.1233,0.1116
27.38,1.0975,-3.2555,12.1355,-0.1789,0.8171,0.0267
27.4,1.905,-3.0352,12.449,0.2551,0.7329,-0.0895
27.42,1.6324,-2.7417,9.0334,0.5066,0.0213,-0.0868
27.44,1.774,-2.5482,8.6279,0.5419,-0.5518,-0.153
27.46,1.5386,-2.2313,9.144,0.3416,-0.4988,-0.1368
27.48,1.2476,-2.437,8.8921,0.0391,-0.0949,-0.0352
27.5,1.1231,-2.5159,8.8844,-0.1173,0.2177,-0.0427
27.52,1.1632,-2.4341,9.3915,-0.1468,0.3014,0.0254
27.54,1.2739,-2.6166,9.671,-0.0829,0.0893,0.044
27.56,1.3204,-2.6037,9.6036,-0.0537,-0.033,0.0132
27.58,1.3319,-2.5029,9.6453,-0.0105,-0.0387,0.0268
27.6,1.1907,-2.6773,9.3749,-0.0099,-0.0347,0.0002
27.62,1.208,-2.4288,9.7761,-0.0073,-0.0175,-0.0063
27.64,1.4792,-2.6109,9.4813,0.0732,-0.0233,0.0177
27.66,1.6071,-2.414,9.2754,0.1169,0.1522,0.0271
27.68,1.3765,-2.8447,8.8416,0.1484,0.276,0.0027
27.7,1.4641,-2.5682,8.8879,0.0449,0.1557,-0.0006
27.72,1.0952,-2.6272,8.6337,-0.2197,-0.2943,-0.0913
27.74,0.8721,-2.7064,8.6405,-0.4443,-0.6079,-0.114
27.76,0.689,-2.6665,8.7683,-0.5747,-0.3784,-0.1661
27.78,0.3676,-2.4823,10.3598,-0.4644,0.3756,-0.1152
27.8,1.5183,-2.1414,12.8957,-0.0738,0.9082,-0.0236
27.82,1.527,-2.3595,11.2566,0.3487,0.6355,0.0752
27.84,2.1345,-2.3339,9.7489,0.6113,-0.1548,0.1225
27.86,1.7497,-2.6413,8.5328,0.5017,-0.6768,0.153
27.88,1.3544,-2.5661,8.6776,0.2329,-0.4472,0.1052
27.9,1.2504,-2.7618,8.612,-0.0124,-0.0228,0.0471
27.92,0.8998,-2.6969,9.1813,-0.1468,0.2468,-0.0435
27.94,1.0197,-2.79,8.9062,-0.149,0.1617,-0.0425
27.96,1.0965,-2.6798,9.1834,-0.1089,0.0105,0.0043
27.98,1.2158,-2.7214,9.4408,-0.0748,-0.0373,-0.0281
28.0,1.056,-2.61,9.2975,-0.0286,-0.04,-0.0365
28.02,1.0983,-2.6214,9.2471,0.0124,-0.0041,0.0029
28.04,1.1029,-2.9514,8.9702,-0.0095,-0.0007,-0.0337
28.06,0.7377,-2.9835,8.8973,-0.0663,-0.047,-0.0425
28.08,1.3412,-2.5785,9.5787,0.0086,0.0001,0.0134
28.1,1.1807,-2.7586,9.6133,0.0301,-0.0222,-0.0325
28.12,1.2679,-2.619,9.4044,0.1053,0.041,-0.0121
28.14,1.2128,-2.478,9.2731,0.1557,0.1781,-0.0374
28.16,1.0931,-2.635,8.7509,0.1054,0.1996,-0.0107
28.18,1.2079,-2.5152,8.7965,-0.0331,-0.0144,0.0608
28.2,0.8806,-2.5639,8.5191,-0.2566,-0.4526,0.088
28.22,1.0134,-2.4036,8.5444,-0.4658,-0.5432,0.1522
28.24,0.3975,-2.7068,9.5466,-0.5029,-0.0435,0.144
28.26,1.0832,-2.7598,11.8352,-0.263,0.6001,0.0625
28.28,1.4516,-2.9629,12.0322,0.1255,0.7995,-0.0081
28.3,1.9452,-2.9228,10.077,0.4507,0.2454,-0.1178
28.32,1.6999,-2.6417,8.7274,0.4647,-0.407,-0.1214
28.34,1.3191,-2.8067,8.0686,0.3375,-0.574,-0.1219
28.36,1.4106,-2.5115,8.8211,0.1498,-0.1729,-0.0773
28.38,1.2671,-2.7968,8.9916,-0.0643,0.1531,-0.0146
28.4,1.1109,-2.2694,9.1623,-0.1142,0.2473,0.0174
28.42,1.0306,-2.7643,9.1405,-0.11,0.0716,0.0193
28.44,1.3494,-2.6276,9.2731,-0.0439,-0.0126,0.0208
28.46,1.202,-2.8374,9.4329,-0.0202,-0.0328,0.0004
28.48,1.2332,-2.7146,9.2315,0.007,-0.0255,0.0087
28.5,1.078,-2.7461,9.157,-0.0131,-0.0007,-0.0175
28.52,1.1778,-2.5603,9.2757,-0.0045,-0.0147,0.019
28.54,1.5837,-2.4722,9.3804,0.0123,-0.0231,0.0164
28.56,1.228,-2.5099,9.0689,0.1078,0.1073,-0.0013
28.58,1.133,-2.8967,8.7525,0.1183,0.1842,0.0194
28.6,0.9512,-2.6402,8.8329,0.0659,0.1693,0.002
28.62,1.1777,-2.7506,8.959,-0.0792,-0.113,-0.0479
28.64,0.9158,-2.7791,8.1961,-0.298,-0.4805,-0.1499
28.66,0.6738,-2.7061,8.4037,-0.4303,-0.426,-0.1172
28.68,0.4213,-2.5491,9.4175,-0.432,0.0741,-0.1239
28.7,0.5448,-2.303,11.3562,-0.1714,0.6552,-0.0356
28.72,1.7729,-2.327,12.0008,0.2085,0.6517,0.0549
28.74,1.7965,-2.508,9.0848,0.3903,0.0438,0.1108
28.76,1.692,-2.62,8.7504,0.4396,-0.4369,0.1115
28.78,1.3106,-2.8195,8.1908,0.2332,-0.4595,0.0829
28.8,1.2907,-2.5784,8.6405,0.0461,-0.1353,0.0693
28.82,1.4584,-2.5444,8.8726,-0.0739,0.1475,0.0329
28.84,1.1826,-2.5441,9.0639,-0.1378,0.173,-0.0119
28.86,1.0545,-2.5779,9.0913,-0.0947,0.0625,-0.012
28.88,0.7516,-2.5369,9.3702,-0.0381,-0.0258,-0.0127
28.9,1.2094,-2.6448,9.2825,-0.0223,-0.0274,-0.0176
28.92,0.8381,-2.8226,9.4328,-0.0082,0.0078,0.001
28.94,1.0795,-2.762,9.3149,-0.0403,0.0039,0.0146
28.96,0.9636,-2.662,9.2835,-0.0186,-0.0172,-0.0002
28.98,1.1562,-2.727,9.2003,-0.0237,-0.0344,-0.0271
29.0,1.3708,-2.6062,9.6873,-0.0061,-0.0478,-0.0352
29.02,1.4447,-2.9259,9.1825,0.0876,0.0603,-0.0378
29.04,1.46,-2.6696,8.8778,0.1621,0.2292,-0.0342
29.06,1.0055,-2.613,8.4902,0.0879,0.2386,-0.016
29.08,1.1411,-2.7682,8.5646,-0.0961,-0.1535,0.0672
29.1,1.3846,-2.384,8.6063,-0.3526,-0.5497,0.1136
29.12,0.5367,-2.8723,8.2241,-0.5332,-0.627,0.1573
29.14,0.2215,-2.858,9.5767,-0.5626,0.0744,0.1087
29.16,0.7356,-2.8522,12.0578,-0.2191,0.7833,0.0625
29.18,1.8362,-2.9059,12.6957,0.1982,0.8456,-0.0798
29.2,1.9155,-3.1803,9.3312,0.5283,0.1414,-0.1133
29.22,1.8904,-2.8505,8.8062,0.5738,-0.528,-0.1197
29.24,1.6956,-2.4927,8.5864,0.371,-0.5866,-0.1218
29.26,1.2407,-2.6229,8.4216,0.1156,-0.2115,-0.0994
29.28,0.8478,-2.7153,8.5643,-0.1593,0.2071,-0.0476
29.3,1.3833,-2.6609,9.0076,-0.1771,0.2635,0.0141
29.32,1.0453,-2.7822,9.1822,-0.1011,0.07,0.056
29.34,1.2111,-2.6061,9.4461,-0.0641,-0.0252,0.016
29.36,1.3417,-2.8212,9.462,-0.0055,-0.0587,0.0218
29.38,1.3987,-2.7953,9.3025,0.0309,0.0136,0.0182
29.4,1.1107,-2.6909,9.2943,-0.0295,-0.0414,0.0066
29.42,1.2681,-2.6319,9.3107,-0.0147,-0.0549,-0.0021
29.44,1.1734,-2.4842,9.448,0.0362,-0.0366,0.0481
29.46,1.2727,-2.402,9.5441,0.0872,0.0733,0.031
29.48,1.2474,-2.9254,8.9751,0.1162,0.1907,0.0006
29.5,1.4037,-2.6112,9.074,0.1355,0.2237,0.0084
29.52,1.6071,-2.5456,9.0243,-0.0117,-0.0587,-0.0457
29.54,1.0586,-2.5711,8.5893,-0.2344,-0.4333,-0.0907
29.56,1.0548,-2.6147,8.7157,-0.4736,-0.5123,-0.1375
29.58,0.612,-2.5619,9.6849,-0.4329,-0.0475,-0.1068
29.6,0.4836,-2.7366,10.7512,-0.3084,0.5953,-0.0664
29.62,1.5625,-2.1847,12.0461,0.113,0.7401,0.0487
29.64,2.1963,-2.5923,10.4577,0.3905,0.2346,0.1146
29.66,1.967,-2.3847,9.173,0.525,-0.4298,0.1387
29.68,1.5077,-2.5467,8.5434,0.319,-0.5462,0.1224
29.7,1.4397,-2.5913,8.7638,0.096,-0.2101,0.0782
29.72,1.3604,-2.269,8.9478,-0.0889,0.1404,0.0681
29.74,1.2735,-2.7265,9.1085,-0.1719,0.2015,-0.029
29.76,1.2219,-2.6929,9.3715,-0.144,0.1009,-0.0184
29.78,1.1098,-2.9531,9.5025,-0.0685,0.0096,-0.0317
29.8,1.3828,-2.5517,9.3523,-0.0307,-0.0476,-0.023
29.82,1.3061,-2.7199,9.4383,-0.0124,-0.0029,-0.0065
29.84,1.3996,-2.8006,9.1203,-0.027,0.0328,0.0067
29.86,1.412,-2.8958,9.6149,-0.0045,-0.0291,-0.0048
29.88,1.6982,-2.5926,9.9697,0.0507,-0.0258,0.0247
29.9,1.1907,-2.8186,9.2283,-0.0064,-0.0743,-0.0168
29.92,1.2889,-2.8373,9.3103,0.0474,-0.0242,-0.0087
29.94,1.4785,-2.3851,9.0973,0.1321,0.1723,-0.0194
29.96,1.0948,-2.7156,8.4465,0.1036,0.2775,0.0447
29.98,1.5636,-2.4273,8.9455,0.0339,0.0975,0.054
30.0,1.2156,-2.3602,8.5231,-0.1957,-0.3956,0.1202
30.02,1.0657,-2.5978,8.7512,-0.4698,-0.6943,0.1352
30.04,0.409,-2.6243,8.9397,-0.6052,-0.3021,0.1677
30.06,0.0633,-3.432,10.3297,-0.4704,0.5106,0.067
30.08,1.8533,-2.5594,13.3847,0.0514,0.9919,0.0098
30.1,1.9397,-2.7215,11.5429,0.4094,0.505,-0.0876
30.12,2.0833,-2.8466,8.9311,0.6147,-0.2926,-0.1449
30.14,2.045,-2.6942,8.5171,0.5183,-0.6843,-0.1327
30.16,1.035,-2.6064,8.2493,0.1848,-0.409,-0.1017
30.18,1.0558,-2.4506,8.7943,-0.0121,0.1068,-0.0411
30.2,1.1116,-2.651,8.9559,-0.1905,0.2666,-0.0358
30.22,1.0834,-2.6587,9.0643,-0.1563,0.1646,-0.0136
30.24,1.148,-2.4038,9.423,-0.0636,0.0547,0.0445
30.26,1.1434,-2.8135,9.6678,-0.0447,-0.0608,0.0011
30.28,1.1828,-2.6735,9.3245,0.02,-0.0274,0.0165
30.3,1.2256,-2.5134,9.3375,0.0042,-0.0295,0.0064
30.32,1.5011,-2.5576,9.5455,-0.0107,0.004,0.0288
30.34,0.8808,-2.8587,9.3706,0.0073,-0.0385,0.0277
30.36,1.1639,-2.6519,9.413,0.0499,-0.0573,0.0192
30.38,1.4093,-2.7665,9.237,0.1179,0.0629,0.0518
30.4,1.4639,-2.8311,9.1036,0.1496,0.2013,0.0166
30.42,1.3227,-2.9278,8.6829,0.076,0.2246,-0.0322
30.44,1.261,-2.8152,8.6073,-0.1061,-0.1362,-0.0884
30.46,0.7765,-2.5663,8.3432,-0.2951,-0.5801,-0.1174
30.48,0.3998,-2.7092,8.2501,-0.5465,-0.5776,-0.1688
30.5,0.336,-2.5426,9.9742,-0.4809,0.0574,-0.0862
30.52,0.5191,-2.4058,11.3042,-0.2626,0.7585,-0.0464
30.54,1.9573,-2.1525,12.2358,0.1915,0.7967,0.0317
30.56,1.9593,-2.447,10.1823,0.5196,0.1478,0.1394
30.58,1.6091,-2.7486,8.3997,0.5266,-0.5509,0.1595
30.6,1.5821,-2.7112,8.6962,0.3728,-0.5924,0.1243
30.62,1.0281,-2.551,8.5049,0.076,-0.1481,0.0681
30.64,1.1243,-2.8029,8.6581,-0.135,0.1935,0.0303
30.66,1.3438,-2.6981,9.0392,-0.1335,0.2343,-0.0162
30.68,1.0468,-2.5859,9.0422,-0.1038,0.0942,-0.0193
30.7,1.161,-2.6582,9.4481,-0.0415,-0.0269,-0.0066
30.72,1.4141,-2.6767,9.5687,-0.0137,-0.0398,-0.0466
30.74,1.2138,-2.6036,9.2006,0.0117,0.015,-0.0155
30.76,1.1986,-2.6656,9.2864,0.0095,0.015,-0.0031
30.78,1.2422,-2.7488,9.2331,-0.0089,-0.0206,-0.0102
30.8,1.1269,-2.712,9.2066,-0.0049,-0.0749,-0.0156
30.82,1.2836,-2.8752,9.5251,0.0836,-0.0026,0.0033
30.84,1.3043,-2.7215,8.8506,0.1123,0.1373,-0.0111
30.86,1.0729,-2.3975,8.8258,0.1442,0.2724,0.0008
30.88,1.5227,-2.5108,8.8425,0.1154,0.167,0.039
30.9,1.2106,-2.6278,8.1877,-0.148,-0.2745,0.079
30.92,0.8186,-2.3746,8.1202,-0.4448,-0.6927,0.1816
30.94,0.555,-2.6559,8.3473,-0.6448,-0.4922,0.1465
30.96,0.2726,-2.9807,10.2347,-0.5482,0.302,0.119
30.98,0.7663,-3.3841,12.0697,-0.1173,0.9641,0.0266
31.0,1.9902,-2.6773,12.2199,0.3861,0.7562,-0.0778
31.02,2.1877,-2.8512,9.2431,0.652,-0.1111,-0.1496
31.04,1.8909,-2.6719,8.2379,0.5624,-0.7036,-0.1501
31.06,1.4015,-2.7381,8.2184,0.2863,-0.5669,-0.1584
31.08,1.2122,-2.5917,8.715,0.0228,-0.0042,-0.0758
31.1,1.1697,-2.6325,8.6992,-0.1754,0.2581,-0.0046
31.12,1.1143,-2.4836,9.1288,-0.1808,0.2524,0.0265
31.14,0.9719,-2.5066,9.2737,-0.126,0.0037,0.0321
31.16,1.237,-2.7488,9.5051,-0.0599,-0.0018,0.019
31.18,1.149,-2.532,9.0689,-0.0445,-0.066,0.0214
31.2,0.9496,-2.728,9.2644,-0.0015,-0.0757,0.0149
31.22,1.01,-2.7663,9.5639,0.0215,-0.0359,0.0035
31.24,1.3768,-2.4679,9.7991,0.0741,-0.0448,0.0067
31.26,1.3677,-2.5319,9.4911,0.0865,0.0422,0.0368
31.28,1.4432,-2.6652,9.0429,0.1639,0.1682,0.0167
31.3,1.4948,-2.5204,9.0262,0.118,0.212,0.0337
31.32,1.256,-2.8327,8.916,0.0182,0.0238,-0.0601
31.34,1.0017,-2.7192,8.6449,-0.2059,-0.427,-0.0884
31.36,0.9469,-2.8047,8.3114,-0.485,-0.6195,-0.1826
31.38,0.2858,-2.6539,9.1189,-0.5038,-0.1543,-0.1126
31.4,0.9323,-2.2539,11.5144,-0.3003,0.5698,-0.091
31.42,1.2264,-2.4574,11.9945,0.0698,0.7731,0.0183
31.44,1.7181,-2.4683,10.0192,0.4597,0.3235,0.1005
31.46,1.7799,-2.6276,8.9357,0.5372,-0.3934,0.1517
31.48,1.4459,-2.7316,8.4813,0.3869,-0.6045,0.1161
31.5,1.3412,-2.7623,8.8174,0.1636,-0.261,0.0925
31.52,1.2272,-2.6249,8.8423,-0.0546,0.1474,0.0154
31.54,1.0754,-2.8219,8.9172,-0.1611,0.2332,0.0259
31.56,1.1119,-2.9324,9.0096,-0.1019,0.1109,-0.01
31.58,1.165,-2.8836,9.3273,-0.0825,-0.0247,-0.0653
31.6,1.0978,-2.5287,9.28,-0.0429,-0.0856,-0.0162
31.62,1.2409,-2.4584,9.508,0.0189,-0.0102,-0.0218
31.64,1.1425,-2.5243,9.4017,-0.0114,-0.0027,-0.0083
31.66,1.2116,-2.8589,9.2202,-0.044,-0.0051,-0.0104
31.68,1.2116,-2.5746,9.2223,-0.0085,-0.0195,0.0006
31.7,1.5079,-2.2759,9.6362,0.0255,-0.0666,-0.0138
31.72,1.14,-2.6241,9.3941,0.0491,-0.0503,-0.0179
31.74,1.6043,-2.7561,9.276,0.1143,0.1097,-0.0366
31.76,1.3338,-2.5786,8.9268,0.1567,0.241,0.0055
31.78,1.1429,-2.7009,8.7831,0.1255,0.1984,-0.004
31.8,1.2863,-2.6989,8.667,-0.0709,-0.1798,0.0534
31.82,0.943,-2.6519,8.5503,-0.3723,-0.6284,0.1574
31.84,0.8103,-2.6672,8.6224,-0.6211,-0.658,0.1628
31.86,0.9264,-2.6856,10.4503,-0.567,0.1424,0.1658
31.88,0.789,-3.02,12.1564,-0.2689,0.8869,0.0427
31.9,1.5073,-2.9829,12.1669,0.2116,0.9082,-0.0632
31.92,2.4171,-2.6764,10.4942,0.5972,0.1362,-0.1227
31.94,1.8317,-2.5145,8.4561,0.6104,-0.6359,-0.1624
31.96,1.4263,-2.4444,8.3091,0.4192,-0.6628,-0.142
31.98,1.4657,-2.3539,8.8637,0.1006,-0.1539,-0.0922
32.0,1.2671,-2.3129,8.7704,-0.0926,0.2435,-0.0015
32.02,1.4892,-2.1797,9.0613,-0.1391,0.294,-0.0079
32.04,1.2849,-2.568,9.2066,-0.1118,0.078,0.0248
32.06,1.1277,-2.6717,9.1281,-0.0762,-0.0478,0.0005
32.08,1.0814,-2.5007,9.5878,-0.0163,-0.09,-0.0055
32.1,1.2349,-2.7661,9.2884,0.0307,-0.041,-0.0005
32.12,1.1246,-2.6196,9.5492,0.0305,-0.0043,0.0084
32.14,1.4198,-2.6828,9.1621,0.001,-0.027,-0.0043
32.16,1.0278,-2.6849,9.4438,-0.0018,-0.0711,0.0092
32.18,1.37,-2.5031,9.1388,0.0892,0.0093,0.0096
32.2,1.2493,-2.6808,8.965,0.116,0.1735,0.0028
32.22,1.6366,-2.4413,9.1534,0.1857,0.279,0.0006
32.24,1.1704,-2.7932,8.6558,0.015,0.0313,-0.0567
32.26,1.0969,-2.6965,8.3344,-0.2215,-0.4766,-0.1102
32.28,0.8222,-2.5338,8.6657,-0.5223,-0.7077,-0.1587
32.3,0.4206,-2.571,9.2337,-0.6182,-0.2646,-0.1451
32.32,0.7955,-2.6278,11.4847,-0.4473,0.553,-0.1366
32.34,0.9642,-2.5282,12.2125,0.0493,0.9695,-0.0042
32.36,1.4943,-2.5818,10.4624,0.4254,0.4648,0.1341
32.38,1.6926,-2.5332,8.8193,0.6343,-0.358,0.1821
32.4,1.4321,-2.6129,8.3449,0.4805,-0.7025,0.1684
32.42,1.2242,-2.9714,8.1708,0.23,-0.3661,0.0945
32.44,1.2356,-2.7253,8.6099,-0.0462,0.0948,0.0375
32.46,1.2111,-2.7696,8.6859,-0.1528,0.257,-0.0167
32.48,1.0875,-2.7754,9.0628,-0.1717,0.1459,-0.02
32.5,1.2809,-2.7064,9.4841,-0.0593,0.0032,0.0147
32.52,1.0146,-2.5628,9.2151,-0.0286,-0.0363,-0.0286
32.54,0.9914,-2.7746,9.4961,0.005,-0.0812,0.0361
32.56,1.3769,-2.6021,9.3632,-0.0021,0.0317,0.0053
32.58,1.0425,-2.9156,8.8222,-0.0249,-0.0394,0.0087
32.6,1.0467,-2.7215,9.3228,-0.0091,-0.051,-0.0231
32.62,1.0938,-2.6522,9.5087,0.0328,-0.0649,-0.0206
32.64,1.2065,-2.7718,9.0803,0.089,-0.0154,-0.0113
32.66,1.4621,-2.7543,8.8813,0.1352,0.1569,0.006
32.68,1.3526,-2.5856,8.6304,0.1519,0.2734,0.0098
32.7,1.2894,-2.3953,8.4466,0.031,0.0185,0.0336
32.72,1.0171,-2.8287,8.2917,-0.2239,-0.4144,0.1248
32.74,0.8486,-2.3645,8.3278,-0.4962,-0.7114,0.1725
32.76,0.4861,-2.831,9.039,-0.6287,-0.2478,0.1505
32.78,1.1705,-2.6921,11.7383,-0.3818,0.6377,0.1005
32.8,1.2089,-3.1854,12.1526,0.0217,0.9948,0.0004
32.82,1.8016,-2.9798,10.6507,0.4385,0.4581,-0.1548
32.84,1.7238,-2.7767,8.6132,0.6172,-0.3699,-0.1368
32.86,1.2781,-2.7126,7.8382,0.4767,-0.7516,-0.1278
32.88,1.2677,-2.6761,8.213,0.1875,-0.4016,-0.0656
32.9,0.896,-2.6085,8.2251,-0.0728,0.1014,-0.0369
32.92,0.8221,-2.7743,8.404,-0.2077,0.2463,-0.0051
32.94,0.8514,-2.7227,9.0015,-0.1486,0.1272,0.0093
32.96,0.6061,-2.7761,8.9919,-0.098,0.0135,0.0116
32.98,1.1559,-2.7936,9.1178,-0.0213,-0.1049,0.0198
33.0,1.1373,-2.5756,9.2901,0.0174,-0.0182,0.0016
33.02,2.2205,-2.3359,10.8219,0.1198,0.0705,-0.0015
33.04,0.7798,-3.0829,8.5326,-0.0732,0.0015,0.011
33.06,1.2529,-2.5384,9.5343,-0.0132,-0.0257,0.0116
33.08,0.0312,-3.3377,7.4516,-0.1051,-0.1513,0.0155
33.1,1.4219,-2.6696,9.7008,0.0406,0.0186,0.0233
33.12,1.3406,-2.7277,8.8421,0.0834,0.0932,0.0066
33.14,1.3505,-2.6628,9.1001,0.1276,0.1976,0.0109
33.16,1.3589,-2.9359,8.7222,0.0671,0.1273,-0.0411
33.18,1.1592,-2.8695,8.5076,-0.0825,-0.2203,-0.0933
33.2,1.0274,-2.6024,8.4656,-0.3197,-0.5149,-0.1219
33.22,0.5891,-2.6869,8.9213,-0.4473,-0.398,-0.102
33.24,1.0684,-2.1613,10.6006,-0.3728,0.2134,-0.0689
33.26,0.6629,-2.8396,10.8391,-0.1225,0.6825,-0.0353
33.28,1.524,-2.667,10.9833,0.2129,0.5424,0.0548
33.3,1.9527,-2.6401,9.3075,0.4507,-0.0901,0.1485
33.32,1.8692,-2.7034,8.9019,0.4477,-0.4539,0.1401
33.34,1.2154,-2.7273,8.4619,0.2354,-0.4176,0.1136
33.36,1.1641,-2.6607,8.7583,0.0248,-0.068,0.0587
33.38,1.003,-2.648,8.8298,-0.1099,0.1876,0.03
33.4,1.1572,-2.7839,9.0754,-0.1227,0.189,0.0201
33.42,1.0762,-2.6162,9.2228,-0.1031,0.0144,-0.0331
33.44,0.8581,-2.6601,9.3178,-0.0728,-0.0521,-0.0139
33.46,1.2799,-2.729,9.347,-0.0334,-0.0359,-0.0087
33.48,1.2213,-2.6617,9.3173,0.0007,-0.0246,0.0209
33.5,1.2971,-2.7786,9.1247,0.0056,-0.01,-0.0147
33.52,1.5302,-2.3657,10.1679,0.0759,0.0553,0.0077
33.54,0.8069,-3.048,8.9924,-0.0567,-0.0718,0.0083
33.56,1.9981,-2.4095,10.9301,0.1209,0.0156,-0.0201
33.58,0.9473,-2.8607,8.8437,0.0248,-0.0311,-0.0121
33.6,2.2961,-2.3368,10.442,0.2438,0.1463,-0.047
33.62,1.4499,-2.5754,9.2263,0.1738,0.2692,-0.0182
33.64,1.6899,-2.364,9.2123,0.1202,0.1802,0.053
33.66,1.2595,-2.5659,8.418,-0.1226,-0.261,0.0939
33.68,1.4238,-2.4243,9.2772,-0.34,-0.6328,0.1376
33.7,0.301,-2.9116,8.4988,-0.5712,-0.513,0.1463
33.72,0.2512,-3.0747,9.5875,-0.4937,0.2274,0.0979
33.74,0.8236,-2.9068,11.8113,-0.1822,0.8569,0.0398
33.76,2.2002,-2.7883,12.1871,0.313,0.7391,-0.0492
33.78,1.9028,-3.0588,9.1809,0.5488,-0.0811,-0.1178
33.8,2.1251,-2.4903,9.0388,0.5854,-0.6213,-0.1423
33.82,1.6097,-2.3977,8.6626,0.2839,-0.4982,-0.1337
33.84,1.0329,-2.5721,8.1803,-0.0167,-0.0784,-0.0775
33.86,1.1905,-2.5729,8.8381,-0.1285,0.2021,-0.0096
33.88,1.2024,-2.6104,8.8987,-0.132,0.1952,0.0283
33.9,1.1092,-2.7665,9.487,-0.1125,0.0602,0.0373
33.92,1.3021,-2.721,9.6402,-0.0568,-0.0594,0.0129
33.94,1.0459,-2.7158,9.3913,0.0154,-0.0569,0.0121
33.96,1.4228,-2.5241,9.4366,0.0103,0.0188,-0.023
33.98,1.3354,-2.7699,9.3588,0.0084,-0.0256,0.0287
34.0,1.0482,-2.797,9.5306,-0.0143,-0.043,-0.0268
34.02,1.6235,-2.587,9.5788,0.0556,-0.0099,0.0597
34.04,1.4836,-2.7627,8.9615,0.095,0.0674,0.0239
34.06,1.4617,-2.8562,8.8511,0.1362,0.2695,0.012
34.08,1.241,-2.8497,8.8059,0.0692,0.1414,-0.0145
34.1,1.1373,-2.8254,8.525,-0.1304,-0.2497,-0.1001
34.12,0.9517,-2.4328,8.6913,-0.347,-0.6058,-0.1189
34.14,0.3386,-3.0093,8.4246,-0.5545,-0.4709,-0.1711
34.16,0.7447,-2.4864,10.4427,-0.4613,0.1929,-0.1103
34.18,0.8735,-2.5138,11.5575,-0.136,0.8235,-0.0394
34.2,1.7973,-2.436,11.7228,0.225,0.6671,0.0444
34.22,2.181,-2.3839,9.8681,0.5386,-0.0307,0.1378
34.24,1.6016,-2.7376,8.5497,0.525,-0.579,0.1268
34.26,1.2167,-2.5483,8.5056,0.2898,-0.5089,0.1044
34.28,1.2845,-2.5424,8.5903,0.044,-0.0731,0.0477
34.3,0.8916,-2.8012,8.8037,-0.1034,0.218,0.0604
34.32,1.1192,-2.8013,8.9336,-0.1364,0.1651,-0.0362
34.34,1.1225,-2.7102,9.0074,-0.0995,0.0218,-0.0343
34.36,1.0978,-2.6617,9.1837,-0.0817,-0.0552,-0.0119
34.38,1.1007,-2.7397,9.2146,0.0175,-0.014,-0.0314
34.4,1.3641,-2.7136,9.3522,0.0099,-0.0021,0.0136
34.42,1.3263,-2.6302,9.2157,-0.0075,0.0377,-0.0021
34.44,0.9595,-2.7733,8.8657,-0.0342,-0.0319,-0.0057
34.46,1.178,-2.6037,9.2953,0.0072,-0.0553,0.0155
34.48,1.2456,-2.4829,9.361,0.0745,-0.0439,0.0006
34.5,1.4225,-2.7071,9.3741,0.1125,0.0253,-0.0455
34.52,1.2721,-2.7,9.1507,0.1508,0.1819,-0.004
34.54,1.3768,-2.5507,8.9114,0.1127,0.2088,0.0251
34.56,1.1667,-2.6212,8.9394,0.0306,0.0472,0.0617
34.58,1.228,-2.8315,8.5991,-0.1757,-0.4191,0.116
34.6,0.6642,-2.8647,8.3331,-0.4603,-0.6327,0.1428
34.62,0.6574,-2.9539,9.1691,-0.516,-0.1837,0.1587
34.64,0.449,-2.9604,10.4245,-0.3117,0.4989,0.1033
34.66,1.404,-2.8901,12.1717,0.0484,0.7969,-0.0537
34.68,1.4958,-2.8265,10.1404,0.3693,0.3637,-0.0774
34.7,1.9608,-2.7294,8.6796,0.5369,-0.3308,-0.1339
34.72,1.4319,-2.8911,8.2631,0.4002,-0.6101,-0.1334
34.74,1.3284,-2.7389,8.6766,0.1787,-0.3173,-0.0852
34.76,1.1161,-2.7018,8.7654,-0.058,0.1013,-0.0554
34.78,1.3388,-2.644,9.0559,-0.1078,0.2474,-0.0044
34.8,0.9718,-2.816,9.0058,-0.1059,0.1429,0.0372
34.82,1.0881,-2.4579,9.1077,-0.0224,0.0053,-0.007
34.84,1.2295,-2.6954,9.3822,-0.0105,-0.0838,0.0057
34.86,0.9961,-2.7752,9.2313,-0.0075,-0.0377,-0.0072
34.88,1.2817,-2.6168,9.3571,0.0206,-0.0296,-0.0223
34.9,1.2223,-2.7752,9.3929,0.0104,-0.0673,0.0083
34.92,0.9613,-2.9499,9.1447,-0.0024,-0.0756,0.0199
34.94,1.1474,-2.9623,8.9364,0.0546,-0.0363,0.0325
34.96,1.3381,-2.889,8.9955,0.1287,0.1098,0.0247
34.98,1.1096,-2.9464,8.5488,0.1059,0.2437,-0.0093
35.0,1.4548,-2.8231,8.831,0.093,0.0887,-0.0203
35.02,1.0734,-2.9257,8.1303,-0.1707,-0.3372,-0.1244
35.04,0.8181,-2.8167,8.1875,-0.4811,-0.6866,-0.14
35.06,0.4366,-2.7156,8.6491,-0.5704,-0.4075,-0.1531
35.08,0.4998,-2.4446,10.4088,-0.4283,0.3625,-0.0945
35.1,0.947,-2.6232,11.4866,-0.0353,0.8893,-0.0076
35.12,1.8277,-2.2644,11.623,0.3443,0.5419,0.0594
35.14,1.7355,-2.6635,9.1117,0.5758,-0.2277,0.1108
35.16,1.3308,-2.7128,8.3582,0.5053,-0.6748,0.1458
35.18,1.4568,-2.5915,8.6868,0.284,-0.4578,0.1142
35.2,1.1059,-2.8234,8.4801,-0.0147,0.0069,0.0284
35.22,1.1074,-2.8959,8.8491,-0.1814,0.231,-0.0054
35.24,0.8792,-2.7636,8.8816,-0.1498,0.169,-0.0027
35.26,0.9546,-3.0023,9.17,-0.1276,0.006,0.0013
35.28,1.2121,-2.6816,9.3187,-0.053,-0.0672,0.0051
35.3,1.4368,-2.608,9.8732,0.029,-0.0659,0.0099
35.32,1.2396,-2.748,9.2369,0.0597,-0.049,0.001
35.34,1.3764,-2.8128,9.1186,0.127,0.0343,-0.0351
35.36,1.5101,-2.6189,9.0371,0.1943,0.2153,-0.0245
35.38,1.149,-2.4933,8.9415,0.1489,0.2907,0.0279
35.4,1.3359,-2.6707,8.7468,0.031,-0.0444,0.0733
35.42,1.2758,-2.696,8.7206,-0.2427,-0.5117,0.1264
35.44,0.8096,-2.6834,8.4178,-0.5104,-0.6412,0.1558
35.46,0.4913,-2.9,9.4745,-0.6007,-0.094,0.1499
35.48,0.7805,-2.794,11.6405,-0.2583,0.6812,0.0481
35.5,1.1021,-3.1606,11.6293,0.1714,0.888,-0.0046
35.52,2.1139,-2.7005,10.7264,0.5074,0.2761,-0.1251
35.54,1.7822,-2.7562,8.7202,0.561,-0.4522,-0.119
35.56,1.3215,-2.7484,8.4191,0.3956,-0.6625,-0.1535
35.58,1.2662,-2.5752,8.7039,0.1557,-0.2801,-0.0744
35.6,1.04,-2.7482,8.797,-0.0657,0.1402,-0.0332
35.62,1.368,-2.3539,9.4003,-0.1373,0.2527,0.0256
35.64,1.1836,-2.6041,9.0642,-0.1376,0.0955,0.0162
35.66,1.0281,-2.5622,9.0905,-0.1112,-0.0298,-0.0148
35.68,1.2399,-2.5886,9.8145,-0.0056,-0.0467,-0.0109
35.7,1.1997,-2.8145,9.2376,0.0037,-0.0303,0.0061
35.72,1.4518,-2.6731,9.4716,0.0353,-0.0605,-0.0008
35.74,1.0062,-2.8027,9.1666,-0.0335,-0.0385,-0.0037
35.76,1.1769,-2.8045,9.5088,0.0523,-0.0405,-0.0015
35.78,1.2763,-2.6787,9.3102,0.038,-0.0386,0.0185
35.8,1.3541,-2.753,9.1147,0.1309,0.1192,0.0385
35.82,1.1784,-2.8628,9.1052,0.1654,0.1965,-0.0108
35.84,1.5152,-2.7138,8.911,0.1059,0.1521,-0.0156
35.86,1.1835,-2.7546,8.5695,-0.0874,-0.2368,-0.0651
35.88,0.9431,-2.668,8.3709,-0.3935,-0.664,-0.15
35.9,0.653,-2.5524,8.6757,-0.57,-0.475,-0.1463
35.92,0.6948,-2.2272,10.3178,-0.456,0.2158,-0.0998
35.94,0.9677,-2.2401,11.691,-0.1644,0.807,-0.0203
35.96,1.6147,-2.595,11.3084,0.2814,0.6501,0.0577
35.98,1.904,-2.4983,9.2378,0.5316,-0.0631,0.1302
36.0,1.986,-2.6353,8.4771,0.5085,-0.6048,0.1367
36.02,1.3746,-2.5213,8.7682,0.3187,-0.5131,0.097
36.04,1.4278,-2.8315,8.7923,0.0288,-0.0367,0.0677
36.06,1.2447,-2.8527,9.0519,-0.0897,0.2397,0.0327
36.08,1.2192,-2.6108,9.2138,-0.1471,0.159,-0.0001
36.1,1.1998,-2.4332,9.4632,-0.0586,0.0398,-0.0051
36.12,1.2135,-2.6682,9.4282,-0.005,-0.051,-0.0077
36.14,1.2261,-2.6697,9.4453,-0.0238,-0.0341,-0.0419
36.16,1.1588,-2.6606,9.2594,0.0026,-0.0346,-0.0088
36.18,1.3992,-2.5402,9.4385,0.0028,-0.0499,-0.002
36.2,1.3305,-2.8161,9.5623,0.0467,-0.0667,-0.0062
36.22,1.179,-2.3383,9.1185,0.0971,-0.0001,-0.0171
36.24,1.489,-2.4284,9.1545,0.1299,0.155,0.0097
36.26,0.9089,-2.5693,8.7574,0.0817,0.1989,0.0084
36.28,1.0767,-2.4272,8.89,-0.0027,-0.0428,0.0418
36.3,0.9942,-2.6332,8.3384,-0.2504,-0.4461,0.1033
36.32,0.8511,-2.7125,8.7854,-0.4335,-0.5691,0.1266
36.34,0.6775,-2.813,9.2822,-0.493,-0.0764,0.1299
36.36,0.7373,-2.8555,10.8131,-0.219,0.605,0.0913
36.38,2.01,-2.7431,11.9388,0.1246,0.7406,0.003
36.4,1.7708,-3.019,9.7718,0.4123,0.2138,-0.0692
36.42,2.1603,-2.6297,8.9522,0.524,-0.4193,-0.0843
36.44,1.3038,-2.8331,8.3025,0.3602,-0.5839,-0.141
36.46,0.9921,-2.8247,8.6107,0.13,-0.2304,-0.0586
36.48,1.0256,-2.6638,8.855,-0.083,0.1492,0.0014
36.5,1.0932,-2.5237,8.8949,-0.1056,0.1665,-0.0333
36.52,1.2352,-2.7667,9.4131,-0.064,0.1286,0.036
36.54,1.1133,-2.6022,9.4235,-0.029,-0.0206,0.0233
36.56,1.1891,-2.7875,9.2586,0.0152,-0.0861,0.0026
36.58,1.2559,-2.6119,9.35,-0.0131,-0.0226,0.0285
36.6,1.3508,-2.5698,9.3671,0.0245,0.021,-0.0026
36.62,1.0829,-2.653,9.0244,0.0152,-0.0579,-0.0219
36.64,1.2652,-2.7661,9.435,0.0604,-0.0226,0.0004
36.66,1.0747,-2.8536,9.0866,0.0357,-0.0249,0.0035
36.68,1.0261,-2.6202,9.0654,0.1238,0.0814,0.0364
36.7,1.1525,-2.637,8.7483,0.0983,0.2124,-0.0125
36.72,1.4916,-2.8757,8.7193,0.0503,0.1597,-0.0385
36.74,1.0782,-2.9594,8.7449,-0.1274,-0.2719,-0.0916
36.76,1.3006,-2.7567,8.5899,-0.3427,-0.5667,-0.1239
36.78,0.5068,-2.8511,8.4504,-0.5296,-0.4239,-0.1227
36.8,0.6131,-2.8401,9.7625,-0.4086,0.2371,-0.1028
36.82,0.8408,-2.586,11.5332,-0.0804,0.761,0.0028
36.84,1.9797,-2.2925,11.415,0.2904,0.5568,0.0686
36.86,1.8609,-2.6668,9.2424,0.5255,-0.0956,0.1206
36.88,1.612,-2.5572,8.7292,0.5277,-0.5776,0.1582
36.9,1.1386,-2.8593,8.1396,0.2248,-0.4493,0.1036
36.92,0.9874,-2.9999,8.3922,-0.0048,-0.0487,0.0484
36.94,1.1358,-3.0042,8.8531,-0.0821,0.2258,-0.0065
36.96,0.7791,-2.9333,8.8298,-0.1121,0.1568,-0.0517
36.98,0.8371,-2.9961,8.9294,-0.099,0.0158,-0.0281
37.0,1.2801,-2.7581,9.2444,-0.0108,-0.0192,-0.0371
37.02,1.3203,-2.8333,9.4945,0.019,-0.0185,-0.0013
37.04,0.9451,-2.6643,8.8183,-0.0135,-0.022,-0.0302
37.06,1.0655,-2.7104,9.3374,0.0365,0.0159,0.0178
37.08,1.0211,-2.7983,8.9084,-0.0447,-0.0279,-0.0199
37.1,1.0238,-2.9243,9.0175,-0.0471,-0.0266,-0.0084
37.12,1.0776,-2.6872,9.4718,0.0456,-0.0654,0.0201
37.14,1.4606,-2.6608,9.2222,0.1018,0.0408,0.0036
37.16,0.9569,-2.736,8.6642,0.098,0.1016,-0.0404
37.18,1.3958,-2.576,8.9142,0.184,0.282,-0.0007
37.2,1.4223,-2.6323,8.8308,0.0444,0.0944,0.0674
37.22,1.2197,-2.8526,8.5718,-0.1723,-0.3582,0.1036
37.24,0.7782,-2.6108,8.7361,-0.3909,-0.6226,0.1447
37.26,0.4872,-2.6222,8.5554,-0.5478,-0.3548,0.0936
37.28,0.6175,-2.9052,10.8244,-0.342,0.4506,0.1008
37.3,1.4359,-2.9697,12.414,-0.0387,0.8802,0.0177
37.32,1.652,-2.8968,10.4514,0.3787,0.507,-0.0969
37.34,2.0155,-2.7648,9.124,0.5729,-0.2571,-0.1459
37.36,1.3692,-2.9094,8.5898,0.5214,-0.6586,-0.1438
37.38,1.3549,-2.7008,8.7911,0.2635,-0.4384,-0.0739
37.4,1.0162,-2.5332,8.5663,-0.0196,0.0104,-0.0415
37.42,1.0523,-2.743,8.8062,-0.1546,0.2531,0.0008
37.44,1.188,-2.6904,9.069,-0.1167,0.1879,0.0428
37.46,0.7718,-2.655,8.9724,-0.0932,-0.0203,0.033
37.48,1.186,-2.4617,9.6336,-0.0032,-0.025,0.025
37.5,1.243,-2.8173,9.2167,-0.0035,-0.0358,0.033
37.52,1.2738,-2.6668,9.3995,0.0295,-0.0354,0.0166
37.54,1.2798,-2.6815,9.1768,-0.0039,-0.002,-0.037
37.56,1.1333,-2.7113,9.3195,0.0332,-0.0012,0.0341
37.58,0.9263,-2.8107,9.0632,-0.0197,-0.0625,-0.0095
37.6,1.1659,-2.5558,9.4028,0.016,-0.0197,-0.0005
37.62,1.391,-2.9551,9.1535,0.0114,-0.0478,-0.0063
37.64,1.1587,-2.8145,8.9502,0.1141,0.0332,0.0257
37.66,1.2758,-2.9338,9.2244,0.1465,0.1865,0.0243
37.68,1.428,-2.7509,9.1615,0.1281,0.1997,0.0182
37.7,1.2405,-2.6842,8.9551,0.01,-0.0754,-0.0573
37.72,1.0532,-2.7474,8.5032,-0.2624,-0.54,-0.1197
37.74,0.6699,-2.5155,8.7258,-0.4761,-0.5496,-0.1029
37.76,0.4784,-2.7261,9.3274,-0.4789,-0.0283,-0.1024
37.78,0.4129,-2.6397,10.9097,-0.2214,0.6338,-0.0132
37.8,1.4089,-2.546,11.6798,0.1231,0.7365,0.0425
37.82,1.9097,-2.644,10.0626,0.4602,0.177,0.1184
37.84,1.7239,-2.8773,8.8367,0.4822,-0.4915,0.1081
37.86,1.5528,-2.6419,8.5199,0.3711,-0.5667,0.1047
37.88,1.3224,-2.7343,8.9263,0.1301,-0.2255,0.0626
37.9,1.1955,-2.8935,8.8223,-0.1016,0.1778,0.004
37.92,1.1216,-2.6491,9.138,-0.1054,0.2183,-0.004
37.94,0.8307,-2.7313,8.8953,-0.0999,0.0632,-0.0151
37.96,1.0486,-2.738,9.1973,-0.0588,-0.0813,0.003
37.98,1.1648,-2.7035,9.3187,-0.0326,-0.0516,-0.0558
38.0,1.344,-2.9109,9.341,0.0168,-0.0349,0.0158
38.02,1.148,-2.6541,9.1259,-0.0063,-0.026,-0.0157
38.04,1.1927,-2.7715,9.2945,-0.0241,-0.0484,-0.0186
38.06,1.2936,-2.5885,9.8342,0.0346,-0.0333,0.0195
38.08,1.3575,-2.811,9.4541,0.0567,-0.0626,-0.0108
38.1,1.3407,-2.7075,9.4747,0.1528,0.0544,-0.0228
38.12,1.4434,-2.5812,9.3386,0.1833,0.1891,-0.0143
38.14,1.5533,-2.5377,9.2528,0.1914,0.2804,-0.0045
38.16,1.4338,-2.6159,8.815,0.0193,-0.0486,0.0586
38.18,0.9775,-2.5968,8.3721,-0.3247,-0.5452,0.0804
38.2,0.7888,-2.8827,8.4208,-0.5425,-0.6759,0.1351
38.22,0.468,-2.9002,9.1689,-0.6099,-0.2081,0.1145
38.24,0.4949,-2.8505,11.0038,-0.3358,0.6369,0.1147
38.26,1.688,-2.9356,12.6669,0.107,0.8998,-0.03
38.28,1.9901,-2.7122,10.5269,0.4735,0.3657,-0.1015
38.3,1.7346,-2.9616,8.8769,0.6428,-0.4682,-0.1361
38.32,1.6185,-2.7657,8.4089,0.4317,-0.6753,-0.1496
38.34,1.3119,-2.7393,8.6134,0.2197,-0.2926,-0.0946
38.36,0.9385,-2.7651,8.587,-0.088,0.1236,-0.0722
38.38,1.1859,-2.5549,9.1012,-0.1717,0.2446,-0.0011
38.4,1.152,-2.676,9.1586,-0.1307,0.1196,0.0246
38.42,0.8594,-2.5692,9.2902,-0.0959,-0.0437,0.0018
38.44,1.1457,-2.6941,9.5,-0.0082,-0.0826,0.0101
38.46,0.9971,-2.7646,9.1421,0.0039,-0.0592,-0.0068
38.48,1.1035,-2.7711,9.1733,-0.0072,0.0139,-0.0026
38.5,1.2262,-2.6139,9.3111,0.0419,0.0126,0.0149
38.52,0.884,-2.7329,9.2742,-0.016,-0.053,0.0045
38.54,1.2737,-2.5382,9.4263,0.0226,-0.0224,0.0238
38.56,1.1145,-2.8025,9.3185,0.0318,-0.0586,0.0181
38.58,1.3425,-2.8193,9.2496,0.1085,0.0608,0.0273
38.6,0.9012,-2.8035,8.745,0.1081,0.1758,-0.0096
38.62,1.2093,-2.8015,8.6437,0.1177,0.2095,-0.0341
38.64,0.8083,-2.8627,8.472,-0.0349,-0.1326,-0.0932
38.66,1.0118,-2.8061,8.6852,-0.291,-0.5221,-0.1311
38.68,0.7335,-2.8035,8.335,-0.5389,-0.611,-0.1556
38.7,0.2485,-2.565,9.3215,-0.5436,-0.0243,-0.1113
38.72,0.9266,-2.2986,12.0125,-0.2716,0.7351,-0.025
38.74,1.2477,-2.625,11.6026,0.1746,0.8242,0.0516
38.76,1.6218,-2.6306,9.5805,0.5216,0.1664,0.1356
38.78,1.6728,-2.4802,8.5745,0.5635,-0.5121,0.1443
38.8,1.5324,-2.6121,8.4537,0.3919,-0.6031,0.1118
38.82,1.0836,-2.8334,8.5129,0.1088,-0.2248,0.0659
38.84,1.1351,-2.9101,8.8322,-0.0975,0.2069,0.0242
38.86,1.1901,-2.6828,8.969,-0.1258,0.2468,-0.0078
38.88,0.9226,-2.7404,9.0761,-0.1049,0.0848,-0.0317
38.9,1.1858,-2.7444,9.6152,-0.0011,0.0065,-0.0197
38.92,1.1525,-2.712,9.3194,-0.0416,-0.0759,-0.014
38.94,1.0914,-2.5659,9.3448,-0.0017,-0.0071,-0.0066
38.96,1.1839,-2.634,9.0683,0.0237,-0.0262,0.0096
38.98,1.1122,-2.817,9.0964,0.0271,-0.0133,0.0262
39.0,1.1276,-2.9316,9.1863,-0.0271,-0.0179,0.0008
39.02,1.1965,-2.9202,9.3066,0.0261,-0.004,0.033
39.04,1.0498,-2.8223,8.931,-0.0045,-0.0184,-0.0046
39.06,1.0749,-2.7349,9.0757,0.0321,0.0053,0.0253
39.08,1.1441,-2.6324,9.3581,0.0581,-0.0114,0.0297
39.1,1.2465,-2.7555,9.0544,-0.0284,-0.0235,-0.0077
39.12,1.0234,-2.7365,9.2794,0.0228,0.0604,0.032
39.14,0.9203,-2.8004,9.1205,-0.0331,-0.0039,-0.0136
39.16,0.9936,-2.7632,9.0,0.0011,-0.038,0.0009
39.18,1.2174,-2.6884,9.1169,0.0165,0.0007,0.0102
39.2,0.9599,-2.7978,9.2956,0.0048,-0.0122,0.0607
39.22,1.2447,-2.7602,9.1416,0.0207,-0.0119,0.0047
39.24,1.2392,-2.8452,9.0397,-0.0053,0.003,0.0236
39.26,1.1618,-2.7482,9.0868,-0.0016,0.0006,0.001
39.28,0.9714,-2.8265,9.0278,-0.0128,-0.0267,-0.0318
39.3,1.228,-2.6604,9.153,-0.0,-0.017,-0.0009
39.32,1.2351,-2.8418,9.2654,0.0317,-0.0019,0.044
39.34,1.3516,-2.839,9.195,0.0701,-0.0022,0.0057
39.36,1.2193,-2.7345,9.0906,0.0125,0.0121,-0.0062
39.38,1.1146,-2.7135,9.1999,0.0242,-0.0336,-0.0314
39.4,1.1574,-2.5888,9.0473,0.0105,-0.0276,-0.0145
39.42,1.1986,-2.828,9.0348,-0.0264,-0.0409,0.0002
39.44,1.2267,-2.7061,9.3004,0.0217,-0.0068,-0.0007
39.46,1.3212,-2.7423,9.3449,0.0393,0.0086,-0.0071
39.48,1.348,-2.76,9.3687,0.0044,0.002,0.0221
39.5,1.163,-2.6068,9.1292,0.0091,-0.0099,-0.0244
39.52,1.3415,-2.5823,9.4052,0.0317,0.0193,0.0199
39.54,1.2206,-2.526,9.3713,-0.0022,0.0125,-0.0019
39.56,1.1219,-2.6963,9.2811,0.0071,0.0058,0.0127
39.58,1.0423,-2.6808,9.281,0.0126,-0.0088,-0.0277
39.6,1.2584,-2.7671,9.1493,-0.0088,-0.0199,0.0017
39.62,1.2379,-2.738,9.1699,0.0211,0.0084,0.0043
39.64,1.0248,-2.6948,9.098,0.008,0.0072,0.0209
39.66,1.1127,-2.8618,9.1703,0.0058,0.0006,-0.0154
39.68,1.0382,-2.8511,9.245,-0.0174,-0.0046,-0.0053
39.7,1.3525,-2.5639,9.5369,0.0247,0.0017,0.0063
39.72,1.247,-2.7119,9.4226,0.0268,0.0028,0.0176
39.74,1.1422,-2.6696,9.2952,0.0063,-0.0131,0.011
39.76,1.1681,-2.7432,9.1277,-0.0118,-0.0273,0.0073
39.78,1.1111,-2.7394,9.2388,0.0105,-0.01,-0.0084
39.8,0.9743,-2.6648,8.9539,-0.0496,-0.044,-0.0436
39.82,1.2197,-2.6955,9.1712,-0.0228,-0.0057,0.0038
39.84,0.9654,-2.6481,9.1526,-0.0383,-0.0164,-0.0147
39.86,1.1508,-2.5387,9.3557,0.0062,0.0019,-0.0116
39.88,1.0164,-2.781,9.2696,-0.0159,-0.0177,-0.0034
39.9,1.3102,-2.6087,9.5082,0.0312,0.0126,0.0112
39.92,1.3274,-2.6333,9.5835,0.0247,0.0285,0.012
39.94,1.1891,-2.673,9.2194,-0.0171,-0.0054,-0.0185
39.96,0.9856,-2.7184,9.1263,-0.0281,-0.0235,-0.0149
39.98,1.0904,-2.6862,9.1551,-0.0116,-0.0138,-0.0052
40.0,0.9964,-2.7481,9.0044,-0.0213,-0.0219,-0.0214
40.02,1.1119,-2.793,9.1321,-0.0096,-0.0124,-0.0016
40.04,1.1278,-2.7373,9.2509,-0.003,-0.0111,-0.0059
40.06,1.1845,-2.7395,9.1811,-0.0044,-0.0066,-0.0026
40.08,1.188,-2.7401,9.1541,-0.0045,-0.0115,-0.0025
40.1,1.1253,-2.5956,9.1561,-0.0067,-0.0106,-0.0032
40.12,1.117,-2.7378,9.0878,-0.0146,-0.0146,-0.0082
40.14,1.0899,-2.6838,9.299,-0.0052,-0.0059,-0.0026
40.16,0.9912,-2.7388,9.0044,-0.023,-0.0181,-0.0128
40.18,1.1482,-2.6533,9.2098,-0.0027,-0.0041,-0.0014
40.2,1.1803,-2.7371,9.2803,-0.004,-0.0044,-0.0016
40.22,1.3846,-2.5028,9.6147,0.0367,0.0268,0.018
40.24,1.316,-2.6533,9.4047,0.0153,0.0115,0.0077
40.26,1.2837,-2.6897,9.4216,0.0108,0.0081,0.0054
40.28,1.1829,-2.6984,9.3135,0.0044,0.0033,0.0022
40.3,1.205,-2.6702,9.2664,0.0078,0.0058,0.0039
40.32,1.0891,-2.702,9.0705,-0.0171,-0.0128,-0.0085
40.34,1.2306,-2.7306,9.444,0.0182,0.0136,0.0091
40.36,1.1305,-2.7992,9.1687,-0.0167,-0.0125,-0.0083
40.38,1.2354,-2.7102,9.2575,-0.0016,-0.0012,-0.0008
40.4,1.154,-2.6574,9.1738,-0.0095,-0.0071,-0.0047
40.42,1.1341,-2.6898,9.1853,-0.0065,-0.0049,-0.0033
40.44,1.2077,-2.7166,9.2265,0.001,0.0008,0.0005
40.46,1.2287,-2.7059,9.2665,-0.0026,-0.0019,-0.0013
40.48,1.2385,-2.668,9.288,0.0001,0.0001,0.0001
40.5,1.1486,-2.7064,9.1804,-0.0087,-0.0065,-0.0044
40.52,1.0534,-2.7143,9.0728,-0.0147,-0.011,-0.0073
40.54,1.1878,-2.684,9.1954,-0.0028,-0.0021,-0.0014
40.56,1.1791,-2.5859,9.1892,-0.0049,-0.0037,-0.0024
40.58,1.2245,-2.8283,9.263,-0.0062,-0.0047,-0.0031
40.6,1.1772,-2.8094,9.1172,-0.0142,-0.0107,-0.0071
40.62,1.0706,-2.7117,9.0659,-0.0185,-0.0139,-0.0093
40.64,1.0939,-2.7601,9.0964,-0.0208,-0.0156,-0.0104
40.66,1.2017,-2.6774,9.2481,0.0052,0.0039,0.0026
40.68,1.3705,-2.5923,9.3947,0.01,0.0075,0.005
40.7,1.2737,-2.5088,9.3598,0.0096,0.0072,0.0048
40.72,1.2049,-2.6895,9.3542,0.0089,0.0067,0.0044
40.74,1.082,-2.7626,9.2744,-0.0066,-0.0049,-0.0033
40.76,1.2709,-2.6207,9.3401,0.0136,0.0102,0.0068
40.78,1.1429,-2.6669,9.3226,0.0049,0.0037,0.0025
40.8,1.2289,-2.8137,9.2935,-0.0047,-0.0035,-0.0024
40.82,1.3448,-2.5296,9.4578,0.0238,0.0179,0.0119
40.84,1.1962,-2.7164,9.2528,0.0094,0.0071,0.0047
40.86,1.3717,-2.6125,9.5072,0.0291,0.0218,0.0145
40.88,1.0852,-2.759,9.0981,-0.009,-0.0068,-0.0045
40.9,1.212,-2.6928,9.2822,0.0056,0.0042,0.0028
40.92,1.1836,-2.6234,9.1412,-0.0111,-0.0083,-0.0055
40.94,1.1704,-2.7621,8.9439,-0.0355,-0.0266,-0.0177
40.96,1.1118,-2.7136,9.1732,-0.0072,-0.0054,-0.0036
40.98,1.167,-2.6758,9.2094,-0.0086,-0.0065,-0.0043
41.0,1.0933,-2.7244,9.3023,-0.0044,-0.0033,-0.0022
41.02,1.0394,-2.7335,8.9938,-0.023,-0.0172,-0.0115
41.04,1.3461,-2.6093,9.3739,0.0175,0.0131,0.0088
41.06,1.1674,-2.7358,9.2131,-0.0016,-0.0012,-0.0008
41.08,0.9778,-2.7662,9.0682,-0.0236,-0.0177,-0.0118
41.1,1.1634,-2.6458,9.2133,0.0035,0.0026,0.0017
41.12,1.3151,-2.6245,9.3937,0.0097,0.0073,0.0049
41.14,1.0935,-2.7854,9.0707,-0.0219,-0.0164,-0.011
41.16,1.2347,-2.6794,9.3234,0.0048,0.0036,0.0024
41.18,1.2224,-2.7698,9.1422,-0.0091,-0.0068,-0.0045
41.2,1.1138,-2.7253,9.2313,-0.0038,-0.0029,-0.0019
41.22,1.313,-2.6646,9.4482,0.0227,0.017,0.0113
41.24,1.2234,-2.7246,9.4104,0.0127,0.0095,0.0064
41.26,1.2915,-2.5707,9.4473,0.0221,0.0166,0.0111
41.28,1.243,-2.7031,9.2989,-0.0026,-0.0019,-0.0013
41.3,1.16,-2.7061,9.2757,-0.0065,-0.0049,-0.0032
41.32,1.3421,-2.6278,9.4349,0.0178,0.0133,0.0089
41.34,1.4792,-2.4809,9.7028,0.047,0.0353,0.0235
41.36,1.1151,-2.8059,9.1818,-0.0135,-0.0101,-0.0067
41.38,1.1453,-2.7459,9.2274,-0.004,-0.003,-0.002
41.4,1.1379,-2.6605,9.2289,-0.0058,-0.0044,-0.0029
41.42,1.2077,-2.7117,9.2458,-0.0026,-0.002,-0.0013
41.44,1.1341,-2.7758,9.0755,-0.0168,-0.0126,-0.0084
41.46,1.1471,-2.7015,9.1348,-0.0124,-0.0093,-0.0062
41.48,1.1927,-2.623,9.4917,0.0186,0.0139,0.0093
41.5,1.1578,-2.7216,9.1126,-0.012,-0.009,-0.006
41.52,1.15,-2.6217,9.3236,0.0033,0.0025,0.0016
41.54,1.2172,-2.6278,9.3524,0.01,0.0075,0.005
41.56,1.277,-2.6069,9.5104,0.0262,0.0196,0.0131
41.58,1.1236,-2.6818,9.2067,-0.0112,-0.0084,-0.0056
41.6,1.1021,-2.6797,9.1724,-0.0132,-0.0099,-0.0066
41.62,1.1179,-2.7002,9.1995,-0.0056,-0.0042,-0.0028
41.64,1.3324,-2.5643,9.464,0.0229,0.0172,0.0115
41.66,1.0454,-2.7585,9.0693,-0.0271,-0.0204,-0.0136
41.68,1.1716,-2.6666,9.34,0.0044,0.0033,0.0022
41.7,1.1619,-2.7062,9.3486,0.0043,0.0032,0.0021
41.72,1.2985,-2.6566,9.4076,0.0143,0.0107,0.0071
41.74,1.2524,-2.6529,9.4188,0.012,0.009,0.006
41.76,1.2464,-2.6591,9.1987,-0.0076,-0.0057,-0.0038
41.78,1.3398,-2.6958,9.4802,0.0213,0.016,0.0107
41.8,1.204,-2.7564,9.4651,0.012,0.009,0.006
41.82,1.0841,-2.6596,9.2914,0.0019,0.0014,0.0009
41.84,1.3359,-2.6504,9.3486,0.01,0.0075,0.005
41.86,1.1703,-2.7004,9.2665,0.0052,0.0039,0.0026
41.88,1.2104,-2.6366,9.3552,0.0149,0.0112,0.0075
41.9,1.325,-2.6336,9.4535,0.0228,0.0171,0.0114
41.92,1.2897,-2.7161,9.3149,0.0085,0.0064,0.0042
41.94,1.1821,-2.6495,9.3209,0.0051,0.0039,0.0026
41.96,1.1953,-2.6598,9.4037,0.0049,0.0037,0.0025
41.98,1.0463,-2.8322,9.0701,-0.0202,-0.0152,-0.0101
