time_s,acc_x,acc_y,acc_z,gyro_x,gyro_y,gyro_z
0.0,0.462,-0.9213,9.7068,-0.0056,-0.0042,-0.0028
0.02,0.5838,-0.7974,9.81,0.0035,0.0027,0.0018
0.04,0.5707,-0.6913,9.9152,0.0179,0.0134,0.009
0.06,0.4747,-0.8066,9.814,0.0009,0.0007,0.0005
0.08,0.5676,-0.8105,9.8564,0.0062,0.0047,0.0031
0.1,0.483,-0.7567,9.6738,-0.0024,-0.0018,-0.0012
0.12,0.4201,-0.939,9.5973,-0.0139,-0.0104,-0.007
0.14,0.5863,-0.6853,9.7581,0.0021,0.0016,0.001
0.16,0.4271,-0.872,9.5668,-0.0282,-0.0211,-0.0141
0.18,0.4933,-0.8797,9.6086,-0.012,-0.009,-0.006
0.2,0.5018,-0.8652,9.7226,0.009,0.0067,0.0045
0.22,0.5612,-0.7417,9.7197,-0.001,-0.0007,-0.0005
0.24,0.5141,-0.7675,10.0536,0.0235,0.0176,0.0117
0.26,0.5967,-0.6534,10.0169,0.027,0.0203,0.0135
0.28,0.7365,-0.8491,9.8275,0.0072,0.0054,0.0036
0.3,0.4209,-0.8312,9.6772,-0.0119,-0.0089,-0.006
0.32,0.5949,-0.8222,9.7977,0.0087,0.0065,0.0044
0.34,0.4805,-0.8058,9.6609,-0.0133,-0.01,-0.0066
0.36,0.5864,-0.6941,9.7723,0.0078,0.0059,0.0039
0.38,0.535,-0.8229,9.8027,0.0073,0.0055,0.0036
0.4,0.6007,-0.7698,9.9261,0.0235,0.0177,0.0118
0.42,0.5123,-0.7434,9.8497,0.0197,0.0148,0.0098
0.44,0.556,-0.66,9.9476,0.0208,0.0156,0.0104
0.46,0.4585,-0.8612,9.6368,-0.0062,-0.0046,-0.0031
0.48,0.5204,-0.7878,9.7897,-0.0057,-0.0042,-0.0028
0.5,0.4045,-0.8078,9.6917,-0.0035,-0.0026,-0.0017
0.52,0.6134,-0.7115,9.9605,0.0212,0.0159,0.0106
0.54,0.4554,-0.903,9.4763,-0.0234,-0.0176,-0.0117
0.56,0.486,-0.7295,9.8304,0.0159,0.0119,0.0079
0.58,0.4902,-0.7561,9.8196,0.0014,0.0011,0.0007
0.6,0.4279,-0.8242,9.3783,-0.0402,-0.0302,-0.0201
0.62,0.4822,-0.8279,9.7389,0.0004,0.0003,0.0002
0.64,0.5043,-0.8489,9.686,-0.0107,-0.008,-0.0053
0.66,0.5555,-0.7996,10.0246,0.0339,0.0254,0.0169
0.68,0.337,-0.928,9.6304,-0.0186,-0.0139,-0.0093
0.7,0.4865,-0.7137,9.8607,0.0105,0.0079,0.0053
0.72,0.3402,-0.8761,9.6209,-0.0164,-0.0123,-0.0082
0.74,0.4336,-0.7992,9.5742,-0.0106,-0.008,-0.0053
0.76,0.5486,-0.7883,9.7257,0.0012,0.0009,0.0006
0.78,0.3758,-0.8612,9.4917,-0.0257,-0.0193,-0.0128
0.8,0.6509,-0.8201,9.7643,0.013,0.0098,0.0065
0.82,0.3965,-0.7999,9.5529,-0.0146,-0.011,-0.0073
0.84,0.5562,-0.8154,9.7849,0.0024,0.0018,0.0012
0.86,0.417,-0.9074,9.6067,-0.0173,-0.0129,-0.0086
0.88,0.5335,-0.788,9.7956,0.0004,0.0003,0.0002
0.9,0.3755,-0.9433,9.5643,-0.023,-0.0172,-0.0115
0.92,0.3922,-0.9847,9.3948,-0.0408,-0.0306,-0.0204
0.94,0.5834,-0.7662,9.9121,0.0246,0.0184,0.0123
0.96,0.5063,-0.8741,9.6138,-0.0125,-0.0094,-0.0063
0.98,0.3352,-0.983,9.6249,-0.0301,-0.0226,-0.0151
1.0,0.5406,-0.8681,9.6749,-0.0066,-0.005,-0.0033
1.02,0.5029,-0.8035,9.572,-0.0139,-0.0104,-0.0069
1.04,0.5697,-0.7433,9.9122,0.0234,0.0175,0.0117
1.06,0.549,-0.6864,9.8512,0.0173,0.013,0.0086
1.08,0.3313,-0.7913,9.698,-0.0061,-0.0046,-0.003
1.1,0.5481,-0.8881,9.69,-0.0031,-0.0023,-0.0015
1.12,0.504,-0.8695,9.6943,-0.0092,-0.0069,-0.0046
1.14,0.4798,-0.7293,9.6493,-0.0106,-0.0073,-0.0054
1.16,0.4267,-0.786,9.5758,-0.0148,-0.0114,-0.0074
1.18,0.5729,-0.7426,9.97,0.019,0.015,0.01
1.2,0.4478,-0.7814,9.6347,-0.0131,-0.0083,-0.0065
1.22,0.3342,-0.7978,9.6464,-0.0077,-0.0022,-0.0039
1.24,0.2382,-0.8728,9.4982,-0.0281,-0.0202,-0.018
1.26,0.3816,-0.8064,9.7402,-0.006,-0.0039,-0.0102
1.28,0.4196,-0.7505,9.7386,-0.0037,-0.0015,0.0001
1.3,0.3775,-0.8983,9.4623,-0.016,-0.0161,-0.0101
1.32,0.4393,-0.7812,9.8448,0.0114,0.0128,0.0074
1.34,0.4946,-0.8143,9.7152,-0.0098,-0.0033,0.0021
1.36,0.475,-0.898,9.6283,-0.0134,-0.0015,-0.0086
1.38,0.5256,-0.8121,9.7686,0.0085,0.0026,0.0064
1.4,0.5678,-0.6663,9.9044,0.0211,0.0157,0.0075
1.42,0.4436,-0.8415,9.7354,0.0152,0.0039,0.0087
1.44,0.4012,-0.7849,9.7235,0.0055,-0.0027,-0.007
1.46,0.4522,-0.8318,9.7357,0.0123,-0.0023,0.0041
1.48,0.4766,-0.8531,9.7379,0.0056,-0.0037,-0.0053
1.5,0.5899,-0.7076,9.7697,0.0071,0.0016,0.0004
1.52,0.4894,-0.859,9.7527,-0.0092,-0.0071,-0.0223
1.54,0.4791,-0.7579,9.9096,0.0211,0.0114,0.0115
1.56,0.5373,-0.7296,9.9439,0.0087,0.0107,0.0008
1.58,0.745,-0.5313,10.064,0.0511,0.0352,0.0145
1.6,0.578,-0.9563,9.6887,-0.0089,-0.0138,-0.0081
1.62,0.6976,-0.6265,9.9643,-0.0008,0.02,0.0037
1.64,0.4139,-0.7868,9.6397,-0.0029,-0.0059,0.0048
1.66,0.611,-0.7615,9.7904,0.0022,0.0146,-0.003
1.68,0.5634,-0.8155,9.6484,-0.0106,0.0068,-0.0148
1.7,0.2616,-1.083,9.4369,-0.0342,-0.0029,0.0116
1.72,0.5469,-0.686,9.8514,0.0253,0.014,0.0107
1.74,0.4959,-0.819,9.7017,0.0098,0.0348,-0.0131
1.76,0.5452,-0.682,9.7629,0.0084,0.0101,0.0243
1.78,0.6089,-0.7002,9.7724,0.0324,-0.0054,-0.0115
1.8,0.1841,-0.7679,9.9586,0.0237,0.0141,0.0048
1.82,0.2315,-0.7443,9.801,-0.0225,0.0293,-0.0021
1.84,0.3781,-0.7449,9.6221,-0.0089,0.0062,-0.0161
1.86,0.42,-0.7263,10.0212,0.021,0.0189,-0.0094
1.88,0.7057,-0.7869,9.8032,0.0119,0.0075,-0.0004
1.9,0.4972,-0.6442,9.791,-0.0295,0.0046,0.0229
1.92,0.4245,-0.8723,9.8349,-0.0076,-0.0017,0.0209
1.94,0.5222,-0.807,9.9436,0.0022,-0.0005,0.0199
1.96,0.4894,-0.8048,9.9974,0.1076,0.0272,0.079
1.98,0.7925,-0.6288,9.6363,0.1553,0.0965,0.0535
2.0,0.4222,-0.9756,9.5705,0.2069,0.1273,0.0244
2.02,0.5573,-0.9092,9.4746,0.108,0.1087,-0.0881
2.04,0.4388,-0.7637,9.1182,-0.1765,-0.162,-0.2279
2.06,0.2522,-0.7107,9.1637,-0.5664,-0.3386,-0.3623
2.08,-0.4135,-0.7005,9.4133,-0.7834,-0.2334,-0.434
2.1,-0.6397,-1.0378,10.4326,-0.6995,0.1986,-0.301
2.12,0.2312,-0.4788,12.1135,-0.1749,0.5118,-0.052
2.14,1.1912,-0.6469,11.3087,0.4916,0.3913,0.2175
2.16,1.5651,-0.5053,9.9593,0.8651,-0.0183,0.3949
2.18,1.215,-0.6233,9.215,0.8245,-0.3378,0.4088
2.2,0.6403,-0.8744,9.0882,0.4042,-0.2632,0.3274
2.22,0.4301,-0.8835,9.0098,0.0399,-0.0035,0.1598
2.24,0.4482,-0.8184,9.1836,-0.2065,0.1584,0.0525
2.26,0.2052,-0.8583,9.4814,-0.1732,0.1178,-0.0617
2.28,0.3662,-0.7766,9.9468,-0.13,0.04,-0.062
2.3,0.3959,-0.5185,9.6352,-0.0386,-0.0178,-0.0765
2.32,0.5341,-0.6795,9.9798,-0.0084,0.0144,-0.0087
2.34,0.3515,-0.564,10.0297,0.0479,-0.0067,0.0046
2.36,0.6589,-0.7377,9.8815,0.0747,0.0166,0.0244
2.38,0.6411,-0.6421,10.1544,0.0173,0.0357,-0.0148
2.4,0.6939,-0.7968,10.1775,0.0705,-0.0029,-0.0326
2.42,0.5242,-0.7035,9.6755,0.1144,-0.0066,-0.0924
2.44,0.8758,-0.8728,9.7198,0.2886,0.1024,-0.0271
2.46,0.5565,-0.4911,9.6168,0.2512,0.1993,-0.0204
2.48,0.6782,-0.5969,9.5366,0.04,0.0789,0.1488
2.5,0.4599,-0.6608,9.0626,-0.3671,-0.267,0.2719
2.52,0.0589,-0.8716,8.9465,-0.8356,-0.396,0.4474
2.54,-0.5274,-0.9945,9.3918,-0.9554,-0.182,0.4397
2.56,-0.2257,-1.0085,11.1411,-0.6687,0.3496,0.3114
2.58,0.2704,-1.2275,12.3277,-0.0519,0.5789,0.0062
2.6,1.35,-1.0875,11.3736,0.7226,0.3132,-0.2812
2.62,1.7022,-0.9089,9.2389,0.9749,-0.2142,-0.4679
2.64,0.9192,-0.8029,9.1176,0.8215,-0.4032,-0.4619
2.66,0.5101,-0.7376,9.4,0.3878,-0.2145,-0.326
2.68,0.152,-0.6275,9.2015,-0.0747,0.0378,-0.1391
2.7,0.1594,-0.7655,9.3865,-0.244,0.1466,0.0225
2.72,0.1882,-0.6675,10.0371,-0.2128,0.1151,0.0472
2.74,0.4009,-0.841,9.6219,-0.141,0.0204,0.0629
2.76,0.3676,-0.4959,9.9951,0.0012,-0.0305,0.0457
2.78,0.7265,-0.8253,10.2115,0.0225,-0.0096,0.0757
2.8,0.3135,-0.8169,9.7169,0.0128,-0.0024,0.0478
2.82,0.3503,-0.491,9.7055,-0.0124,-0.0355,-0.0014
2.84,0.6074,-0.6594,10.2838,0.078,0.0072,0.0637
2.86,0.6344,-0.7247,10.0246,0.1918,0.0269,0.0596
2.88,0.6395,-0.8894,9.3542,0.2305,0.09,0.0454
2.9,0.5838,-0.7225,9.6329,0.321,0.2158,-0.0003
2.92,0.248,-0.9943,8.9674,0.0653,0.0615,-0.1417
2.94,0.2393,-0.8049,8.7842,-0.3572,-0.2314,-0.3233
2.96,0.0697,-0.7129,9.0345,-0.8251,-0.4235,-0.5044
2.98,-0.5728,-0.6983,9.2996,-1.0856,-0.2728,-0.532
3.0,-0.3871,-0.4972,11.1322,-0.7394,0.3306,-0.3542
3.02,0.3135,-0.5332,12.4815,-0.097,0.6196,-0.0346
3.04,1.1078,-0.7026,10.8919,0.6725,0.4145,0.3093
3.06,1.4417,-0.7156,9.333,1.0527,-0.139,0.508
3.08,0.9928,-0.5629,8.7922,0.9618,-0.4914,0.512
3.1,0.4631,-0.8557,8.8459,0.4322,-0.274,0.4123
3.12,0.4862,-1.1072,8.9043,-0.0231,-0.0321,0.1742
3.14,0.438,-1.0532,9.0792,-0.2427,0.1989,0.0333
3.16,0.0519,-0.9183,9.4447,-0.2996,0.1309,-0.0431
3.18,0.42,-0.7109,9.8196,-0.1684,0.046,-0.048
3.2,0.3469,-0.6487,9.7884,-0.0492,-0.0267,-0.0468
3.22,0.5796,-0.7508,9.6996,-0.0021,-0.033,-0.0378
3.24,0.487,-0.5585,10.176,0.0038,-0.0354,-0.0421
3.26,0.6613,-0.7009,9.9903,0.0647,-0.0389,-0.0062
3.28,0.6419,-0.6819,10.0983,0.124,0.0035,-0.0378
3.3,0.7857,-0.6584,9.6944,0.2146,0.0998,-0.0371
3.32,0.9378,-0.5485,9.636,0.3072,0.1735,0.0143
3.34,0.4811,-0.4709,9.2587,0.0846,0.0714,0.1372
3.36,0.5085,-0.6318,9.0668,-0.3113,-0.2159,0.3067
3.38,0.1665,-0.5783,8.9647,-0.6918,-0.3652,0.419
3.4,-0.2587,-0.741,9.4185,-0.8821,-0.1877,0.4306
3.42,-0.2733,-0.816,11.2379,-0.6387,0.27,0.2967
3.44,0.0883,-1.0385,11.9209,-0.0519,0.5661,0.0365
3.46,1.3134,-0.6813,11.4154,0.6383,0.3499,-0.2463
3.48,1.4116,-0.7096,9.3794,0.8999,-0.1762,-0.4633
3.5,0.9108,-0.7806,9.0038,0.7535,-0.3839,-0.422
3.52,0.4603,-0.6669,9.2251,0.345,-0.2573,-0.2963
3.54,0.4714,-0.6409,9.3219,-0.0644,0.0622,-0.1476
3.56,0.3668,-0.6736,9.3123,-0.2314,0.1679,-0.0014
3.58,0.5041,-0.6144,9.8943,-0.1904,0.1353,0.0824
3.6,0.2782,-0.718,9.7381,-0.1019,0.0347,0.0738
3.62,0.6453,-0.4813,10.2793,-0.0271,-0.019,0.0425
3.64,0.2803,-0.7439,9.8351,0.0325,-0.03,-0.0001
3.66,0.4221,-0.7906,10.0051,0.0223,0.0295,-0.0275
3.68,0.7492,-0.3461,10.0619,0.072,0.0437,-0.0085
3.7,0.5397,-0.9152,10.0287,-0.0171,0.0235,0.0036
3.72,0.6762,-0.7865,10.0467,0.0119,-0.0157,0.026
3.74,0.5049,-0.6867,10.0361,0.0755,-0.0343,0.0447
3.76,0.9411,-0.6983,10.0116,0.1827,0.0273,0.0541
3.78,0.3432,-0.4544,9.3763,0.2837,0.1224,0.0089
3.8,0.4727,-0.7177,9.333,0.1975,0.1275,-0.0386
3.82,0.5071,-0.9037,9.2231,-0.0657,-0.027,-0.2061
3.84,0.2726,-1.1193,8.9033,-0.5555,-0.3002,-0.3823
3.86,-0.1299,-0.6349,9.248,-0.8504,-0.3322,-0.4531
3.88,-0.4651,-0.6486,9.9264,-0.9108,-0.0603,-0.454
3.9,-0.1823,-0.6311,11.5829,-0.4202,0.4839,-0.1507
3.92,1.024,-0.2415,12.3406,0.3076,0.5453,0.1216
3.94,1.2975,-0.6712,10.2925,0.8208,0.1531,0.3579
3.96,1.1805,-0.7729,9.2402,0.9528,-0.3192,0.4494
3.98,0.7154,-0.7713,9.4356,0.6906,-0.309,0.416
4.0,0.6557,-0.722,9.5575,0.1995,-0.1177,0.2724
4.02,0.418,-1.0283,9.2575,-0.1786,0.0871,0.0668
4.04,0.3285,-0.7615,9.575,-0.2599,0.1502,-0.025
4.06,0.2225,-1.0195,9.6359,-0.2197,0.064,-0.02
4.08,0.541,-0.7757,9.5809,-0.0892,-0.0077,-0.0648
4.1,0.5013,-0.8324,9.8747,-0.033,-0.0175,-0.0003
4.12,0.3345,-1.0303,9.7882,0.0272,-0.0226,0.0034
4.14,0.4107,-0.7365,9.7242,0.0397,0.0304,-0.0183
4.16,0.5966,-0.9736,10.2452,0.0473,-0.0166,-0.0017
4.18,0.4634,-0.6498,9.8894,0.0314,-0.0071,-0.034
4.2,0.4021,-0.8941,9.5075,0.1494,0.0032,-0.0726
4.22,0.8359,-0.7236,9.5852,0.2369,0.0968,-0.0707
4.24,0.7682,-0.6613,9.3678,0.2745,0.1692,-0.0308
4.26,0.4834,-0.702,9.06,0.0764,0.101,0.1606
4.28,0.4653,-0.4336,8.9957,-0.2895,-0.1969,0.343
4.3,-0.0851,-0.8612,9.0672,-0.7403,-0.4386,0.4649
4.32,-0.2032,-0.8517,9.1808,-1.0625,-0.2426,0.4995
4.34,-0.082,-0.9405,11.1578,-0.7675,0.2934,0.3736
4.36,0.2277,-1.2159,11.7943,-0.0791,0.6433,0.0713
4.38,1.4231,-0.9576,11.9744,0.6585,0.4046,-0.236
4.4,1.4852,-1.2812,9.4962,1.0228,-0.0904,-0.4891
4.42,0.9378,-0.8939,8.9255,0.9167,-0.4685,-0.4694
4.44,0.6328,-0.7944,9.0215,0.4292,-0.279,-0.3779
4.46,0.1274,-0.7386,9.0951,-0.0022,0.0113,-0.1799
4.48,0.4056,-0.7707,9.6256,-0.2302,0.1933,0.0256
4.5,0.4367,-0.6634,9.4847,-0.2614,0.1545,0.0532
4.52,0.3252,-0.866,9.6499,-0.1786,0.0503,0.0373
4.54,0.1059,-0.829,9.7371,-0.0659,-0.0339,0.0822
4.56,0.8489,-0.6854,10.0479,0.0218,-0.0103,0.049
4.58,0.6199,-0.7869,9.6639,0.0287,0.0105,0.017
4.6,0.4345,-0.7542,9.7552,-0.0096,0.0046,0.025
4.62,0.7306,-0.5596,10.1163,0.0412,0.0103,0.0341
4.64,0.5097,-0.6726,9.8847,0.0917,0.0031,0.0582
4.66,0.5269,-0.9332,9.6581,0.2015,0.0244,0.0656
4.68,0.8035,-0.8602,9.4532,0.3202,0.1789,0.0604
4.7,0.6051,-1.0422,9.1897,0.2483,0.198,-0.0444
4.72,0.401,-1.0021,9.0378,-0.1059,-0.0935,-0.2344
4.74,0.1663,-0.7494,9.0687,-0.6063,-0.3802,-0.4826
4.76,-0.1574,-0.629,9.0706,-1.0599,-0.4836,-0.5421
4.78,-0.3817,-0.3137,10.2278,-1.0628,-0.0409,-0.4652
4.8,0.1883,-0.2927,12.4971,-0.551,0.5893,-0.242
4.82,0.5513,-0.642,12.0695,0.3185,0.6399,0.1391
4.84,1.9967,-0.4307,10.7719,0.9588,0.1595,0.4357
4.86,1.5153,-0.8439,9.1124,1.1262,-0.3969,0.5583
4.88,0.7657,-0.8022,8.8425,0.7459,-0.482,0.4814
4.9,0.4589,-0.8826,9.0481,0.2159,-0.1758,0.2481
4.92,0.5272,-0.9004,9.6932,-0.1568,0.1549,0.0911
4.94,0.3703,-0.9399,9.4806,-0.3294,0.1834,-0.0325
4.96,0.5651,-0.7914,9.8731,-0.218,0.0955,-0.0351
4.98,0.2524,-0.709,9.7825,-0.084,-0.0415,-0.0572
5.0,0.2388,-0.7586,9.8976,0.0247,-0.0328,-0.0714
5.02,0.6954,-0.9076,9.9309,0.015,-0.0223,-0.0191
5.04,0.6613,-0.93,10.0945,0.0244,0.0255,0.0201
5.06,0.5254,-0.6668,9.8118,0.0155,0.0002,-0.0068
5.08,0.5697,-0.7319,9.9061,0.0012,-0.0162,-0.0386
5.1,0.6577,-0.7852,10.1069,0.0688,-0.0028,-0.0715
5.12,0.4237,-0.7312,10.0305,0.137,-0.0191,-0.0763
5.14,0.762,-0.6357,9.5435,0.2371,0.1392,-0.0749
5.16,0.65,-0.5639,9.5523,0.2352,0.1861,-0.0043
5.18,0.5431,-0.5815,9.3438,0.0148,0.0208,0.1566
5.2,0.4185,-0.9305,8.9459,-0.3947,-0.2505,0.3313
5.22,-0.1362,-0.7455,8.9521,-0.8585,-0.4198,0.4663
5.24,-0.4778,-0.8146,9.6408,-0.955,-0.1025,0.4903
5.26,-0.3592,-0.8755,11.4855,-0.5642,0.3578,0.2627
5.28,0.5743,-1.1354,12.0785,0.0594,0.5622,-0.0502
5.3,1.5861,-0.9448,11.2349,0.7886,0.2565,-0.3084
5.32,1.6166,-0.9507,9.2293,1.0225,-0.2527,-0.4745
5.34,0.8258,-0.626,8.914,0.7958,-0.4289,-0.4441
5.36,0.6735,-0.7368,9.2221,0.2845,-0.1974,-0.2732
5.38,0.5387,-0.4583,9.517,-0.0319,0.1103,-0.0841
5.4,0.4273,-0.7804,9.1177,-0.2918,0.1719,0.0001
5.42,0.218,-0.8973,9.9383,-0.2182,0.0804,0.0608
5.44,0.4484,-0.7167,10.1666,-0.0683,0.0419,0.0662
5.46,0.2579,-0.7143,9.7952,0.0028,-0.0447,0.0229
5.48,0.597,-0.9645,9.9754,0.0223,-0.0294,0.0329
5.5,0.8494,-0.8165,9.9481,0.0306,0.0387,0.0464
5.52,0.3683,-0.7049,9.7784,-0.022,-0.0127,0.023
5.54,0.5081,-0.9112,9.5758,0.022,-0.0683,0.0449
5.56,0.5008,-0.7482,9.6023,0.1279,-0.0236,0.0352
5.58,0.8239,-1.0164,9.5203,0.2716,0.0918,0.0607
5.6,0.4513,-1.029,9.3316,0.3257,0.1803,0.0456
5.62,0.4802,-0.9828,9.0465,0.148,0.0963,-0.1136
5.64,0.2078,-1.2063,8.8911,-0.2809,-0.2045,-0.3345
5.66,-0.0328,-1.0454,8.7999,-0.8192,-0.471,-0.4966
5.68,-0.4712,-0.8511,8.9912,-1.1427,-0.3286,-0.556
5.7,-0.3152,-0.3222,11.2033,-0.844,0.2324,-0.4127
5.72,0.1841,-0.5465,11.9477,-0.1929,0.6147,-0.0989
5.74,1.2112,-0.3775,11.8205,0.6281,0.4505,0.2845
5.76,1.4116,-0.6104,9.4293,1.0568,-0.0973,0.5169
5.78,0.9233,-0.8982,8.6624,1.0016,-0.4679,0.5541
5.8,0.5655,-0.9621,8.8686,0.5057,-0.3269,0.3926
5.82,0.5651,-0.7479,9.41,0.0596,0.0126,0.2573
5.84,0.2738,-0.9913,9.0642,-0.2641,0.1077,0.0034
5.86,0.1247,-1.0101,9.0879,-0.3002,0.1352,-0.076
5.88,0.2936,-0.9368,9.6815,-0.181,0.047,-0.0788
5.9,0.4125,-0.9472,9.7144,-0.0756,-0.0299,-0.086
5.92,0.5306,-1.1031,10.1343,0.037,-0.0231,0.0051
5.94,0.4674,-0.532,9.6055,-0.0296,0.0023,-0.0525
5.96,0.5477,-0.808,9.7154,-0.0109,-0.0149,0.0081
5.98,0.6125,-0.6632,9.9665,0.0132,-0.046,-0.0512
6.0,0.306,-0.6293,9.7607,0.0698,-0.019,-0.0416
6.02,0.7963,-0.8683,10.0066,0.2399,0.113,-0.0301
6.04,0.5997,-0.5847,9.4432,0.2441,0.1018,-0.0462
6.06,0.7265,-0.7694,9.2453,0.174,0.1371,0.0441
6.08,0.4095,-0.8684,9.1204,-0.1098,-0.0653,0.1978
6.1,0.0576,-0.6186,9.2167,-0.5071,-0.3142,0.3859
6.12,0.0311,-1.0081,9.1618,-0.924,-0.3629,0.4592
6.14,-0.3929,-0.8559,10.2317,-0.8092,0.0698,0.4374
6.16,0.3215,-1.0615,12.2013,-0.3821,0.4661,0.1805
6.18,0.4909,-1.1204,11.5359,0.3427,0.4812,-0.176
6.2,1.3439,-1.0065,10.6317,0.8742,0.0345,-0.4001
6.22,1.3249,-0.6273,9.3474,0.9271,-0.3381,-0.4722
6.24,0.7189,-0.5695,9.0469,0.5849,-0.3975,-0.409
6.26,0.7909,-0.5302,9.3605,0.1471,-0.0669,-0.1891
6.28,0.5662,-0.6721,9.655,-0.1694,0.1457,-0.0451
6.3,0.3185,-0.8724,9.3785,-0.2753,0.1228,0.0549
6.32,0.3145,-0.8185,9.8386,-0.1995,0.0504,0.1175
6.34,0.6834,-0.8615,9.9558,0.0336,0.0103,0.047
6.36,0.7716,-0.8176,10.0043,-0.0042,-0.0301,0.0436
6.38,0.5089,-0.804,9.8482,-0.0115,-0.0066,0.0098
6.4,0.7008,-0.6357,10.0528,0.0134,0.042,0.0018
6.42,0.5412,-0.9172,9.7765,-0.0358,-0.0674,0.0076
6.44,0.8498,-0.7317,9.9997,0.0736,-0.0248,0.0253
6.46,0.6191,-0.6179,10.024,0.1561,-0.017,0.0596
6.48,0.6937,-1.0204,9.7693,0.2019,0.0986,0.0484
6.5,0.4495,-0.7709,9.3615,0.3018,0.163,0.0016
6.52,0.649,-0.8467,9.3708,0.0834,0.0328,-0.1238
6.54,0.3363,-0.8064,9.3474,-0.3303,-0.2423,-0.3215
6.56,0.0225,-0.8457,8.8368,-0.8203,-0.4493,-0.4703
6.58,-0.2738,-0.6404,9.6002,-0.9778,-0.2242,-0.4565
6.6,-0.6342,-0.6992,10.5154,-0.7662,0.2576,-0.3406
6.62,0.813,-0.1793,12.8283,-0.0024,0.6109,-0.0341
6.64,1.1862,-0.7461,10.7682,0.6265,0.3095,0.252
6.66,1.5082,-0.5185,9.5471,0.981,-0.1754,0.4669
6.68,0.9861,-0.9631,8.8451,0.8234,-0.4448,0.4602
6.7,0.4981,-1.011,8.9029,0.3856,-0.2779,0.3407
6.72,0.3755,-1.0832,9.1466,-0.0417,0.0572,0.1933
6.74,0.4593,-0.8674,9.4354,-0.2347,0.181,-0.0153
6.76,0.4748,-0.8825,9.7588,-0.2238,0.1264,-0.0226
6.78,0.0527,-0.9483,9.7018,-0.1223,-0.0427,-0.1003
6.8,0.4265,-0.9054,9.5233,-0.0194,-0.0882,-0.0487
6.82,0.3586,-0.8881,9.6707,0.016,-0.0572,0.0126
6.84,0.623,-0.8222,9.851,0.082,-0.0133,0.0065
6.86,0.7145,-0.7274,9.9001,0.0395,0.0095,-0.0122
6.88,0.4928,-0.9001,9.7018,-0.0232,-0.0244,-0.0686
6.9,0.7605,-0.7534,9.9142,0.1124,-0.0025,-0.0646
6.92,0.4179,-0.7626,9.6796,0.2374,0.0646,-0.0446
6.94,0.7838,-0.8516,9.3676,0.2871,0.1854,-0.0552
6.96,0.7304,-0.6048,9.1511,0.23,0.1537,0.0231
6.98,0.4582,-0.6569,9.1925,-0.0893,-0.0331,0.2212
7.0,0.2401,-0.9223,8.7641,-0.6121,-0.3637,0.4291
7.02,-0.0727,-0.8746,9.0611,-0.9605,-0.3926,0.5308
7.04,-0.5979,-0.9553,9.9603,-0.9857,-0.0229,0.4314
7.06,-0.0126,-1.1099,12.2118,-0.4641,0.5468,0.2169
7.08,1.1242,-0.8578,12.522,0.3467,0.6011,-0.1023
7.1,1.4226,-1.2567,10.0479,0.9402,0.0976,-0.4357
7.12,1.4599,-0.7985,9.0256,1.0829,-0.3601,-0.5094
7.14,0.793,-1.0688,8.5929,0.6902,-0.4612,-0.4705
7.16,0.5789,-0.6156,8.8294,0.1961,-0.1649,-0.2757
7.18,0.4051,-0.9992,9.2946,-0.1365,0.1709,-0.0808
7.2,0.4839,-0.7909,9.6223,-0.2661,0.1581,0.0481
7.22,0.2997,-0.6977,9.6248,-0.2059,0.0661,0.0753
7.24,0.7646,-0.8745,9.8424,-0.0731,-0.0035,0.0793
7.26,0.563,-1.0895,10.0519,-0.0197,-0.0315,0.0637
7.28,0.3876,-0.7285,9.7618,0.0216,0.0256,0.0234
7.3,0.4564,-0.784,9.5843,0.0077,-0.0366,0.0065
7.32,0.6432,-0.8373,10.0875,0.0652,-0.0017,0.0881
7.34,0.6252,-0.8699,9.82,0.0336,-0.0398,0.0479
7.36,0.6523,-0.8698,9.7734,0.1071,-0.045,0.0651
7.38,0.7621,-0.9262,9.6579,0.2599,0.0998,0.0606
7.4,0.6369,-1.0442,9.4037,0.2692,0.1245,0.0059
7.42,0.5158,-0.6823,9.1182,0.1001,0.0767,-0.1348
7.44,0.4367,-0.6876,9.2467,-0.2502,-0.223,-0.3162
7.46,0.0219,-0.5493,8.954,-0.7511,-0.4491,-0.4663
7.48,-0.4534,-0.6427,9.3275,-1.0074,-0.2237,-0.5134
7.5,-0.5729,-0.61,10.5379,-0.7314,0.2678,-0.312
7.52,0.6731,-0.2993,12.6871,-0.07,0.5982,-0.0642
7.54,1.4284,-0.551,11.2611,0.6286,0.37,0.2722
7.56,1.5148,-0.5945,9.8337,1.0479,-0.1602,0.4752
7.58,1.0998,-0.7592,9.205,0.8579,-0.4097,0.5315
7.6,1.0096,-0.5835,9.2414,0.4599,-0.2738,0.3602
7.62,0.9765,-0.8446,9.4629,0.0191,0.0243,0.1768
7.64,0.3651,-0.9156,9.1543,-0.2661,0.1593,0.0342
7.66,0.4103,-0.9608,9.6816,-0.2638,0.1027,-0.0607
7.68,0.4174,-0.8276,9.6932,-0.1174,-0.008,-0.052
7.7,0.6416,-0.3282,10.0986,-0.0289,-0.0253,-0.0291
7.72,1.0754,-0.694,10.3088,0.0982,0.0154,-0.0223
7.74,0.6175,-0.9869,9.5542,0.0223,-0.0311,-0.0208
7.76,0.7235,-0.708,10.2022,0.0186,0.0382,-0.0079
7.78,0.4246,-1.172,9.639,-0.0167,-0.0179,-0.0081
7.8,0.295,-0.4855,9.8023,-0.009,-0.0414,-0.0097
7.82,0.6664,-0.6994,9.946,0.0717,-0.0519,-0.0633
7.84,0.5673,-0.7627,9.5599,0.1278,-0.0525,-0.0739
7.86,0.4682,-0.4856,9.8571,0.2922,0.1256,-0.0322
7.88,0.7625,-0.6286,9.668,0.2353,0.1124,0.0219
7.9,0.4714,-0.7057,9.1348,-0.0137,-0.04,0.1496
7.92,0.2892,-0.5632,9.1973,-0.4059,-0.3196,0.3435
7.94,-0.0547,-0.8516,9.0921,-0.7946,-0.4069,0.3793
7.96,-0.3681,-1.04,9.7024,-0.8402,-0.0688,0.3918
7.98,0.1657,-0.8191,12.0261,-0.4546,0.4184,0.195
8.0,0.6004,-1.2097,11.4542,0.1597,0.4985,-0.0909
8.02,1.599,-1.0138,10.9019,0.7338,0.1488,-0.3124
8.04,1.6857,-0.8496,9.6247,0.9509,-0.2501,-0.3858
8.06,1.0461,-0.8029,9.28,0.6487,-0.3394,-0.3739
8.08,0.5212,-0.6702,9.0295,0.1835,-0.2169,-0.2773
8.1,0.4448,-0.7512,9.4837,-0.1523,0.0834,-0.1327
8.12,0.5536,-0.7158,9.4776,-0.2239,0.1394,-0.004
8.14,0.5636,-0.673,9.5954,-0.1878,0.0618,0.0431
8.16,0.6563,-0.6816,9.7875,-0.0937,-0.0194,0.0831
8.18,0.5203,-0.7984,9.7012,0.0005,-0.0635,0.0022
8.2,0.7988,-0.8792,9.9537,0.0016,-0.0303,0.0356
8.22,0.6302,-0.7721,9.6198,0.008,-0.0116,0.01
8.24,0.3084,-0.7843,9.6952,0.0032,0.0009,0.0477
8.26,0.5387,-0.7975,9.6726,0.0352,-0.061,-0.0152
8.28,0.6632,-1.1332,9.7353,-0.008,-0.0067,0.0576
8.3,0.6054,-0.7321,9.8682,0.0667,-0.0072,0.0668
8.32,0.1881,-1.1323,9.7916,0.1522,-0.0092,0.081
8.34,0.2594,-1.0857,9.095,0.2227,0.0759,0.0531
8.36,0.7025,-1.0171,9.6241,0.2367,0.1453,-0.0165
8.38,0.1906,-1.2419,8.9847,-0.0178,-0.023,-0.159
8.4,0.4879,-0.9986,9.1609,-0.3899,-0.2593,-0.3091
8.42,-0.0439,-0.8652,9.084,-0.7599,-0.3495,-0.4091
8.44,-0.2294,-0.7216,9.8355,-0.7664,-0.0428,-0.3885
8.46,-0.3184,-0.7555,11.1965,-0.4175,0.3486,-0.1786
8.48,1.0535,-0.6433,12.394,0.1802,0.4652,0.0449
8.5,1.1525,-0.898,10.3844,0.7368,0.1514,0.2968
8.52,1.3329,-0.8182,9.5746,0.8194,-0.2584,0.4385
8.54,1.0069,-0.9198,8.7002,0.5706,-0.4016,0.3516
8.56,0.6596,-1.0143,9.1468,0.2257,-0.1452,0.2287
8.58,0.3496,-1.1775,9.1644,-0.1163,0.0532,0.0589
8.6,0.5015,-0.8981,9.8663,-0.1625,0.1426,-0.0126
8.62,0.4316,-0.769,9.4477,-0.1877,0.015,-0.1063
8.64,0.4243,-0.9289,9.671,-0.1019,-0.0048,-0.0644
8.66,0.5957,-0.8712,9.8833,-0.0164,-0.051,-0.0475
8.68,0.4606,-0.7778,9.9269,0.0417,-0.0312,0.0132
8.7,0.6507,-0.6255,9.9366,0.0106,0.0139,0.0137
8.72,0.3298,-1.0601,9.6251,-0.0628,-0.0433,-0.0245
8.74,0.5572,-0.7245,9.8183,0.0052,-0.0145,-0.0011
8.76,0.7272,-0.7361,10.0545,0.0756,-0.0545,-0.048
8.78,0.74,-0.5249,9.4869,0.1256,0.0203,-0.0819
8.8,0.8295,-0.7718,9.5168,0.2268,0.1225,-0.0365
8.82,0.7433,-0.7303,9.3426,0.2045,0.1348,0.014
8.84,0.5351,-0.6852,9.4334,-0.0345,-0.032,0.1906
8.86,0.3681,-0.7276,9.1897,-0.431,-0.2874,0.2988
8.88,-0.004,-0.9059,9.0853,-0.8338,-0.4152,0.3987
8.9,-0.1535,-0.7045,10.0988,-0.8227,-0.0111,0.3796
8.92,-0.2749,-1.3357,11.7269,-0.3634,0.3996,0.1815
8.94,1.362,-0.97,12.5649,0.2554,0.446,-0.0782
8.96,1.1435,-1.1845,10.5363,0.7765,0.1028,-0.3279
8.98,1.3267,-0.7932,9.1967,0.855,-0.2947,-0.4197
9.0,0.9283,-0.8364,9.1696,0.561,-0.3583,-0.3757
9.02,0.3929,-0.9171,9.279,0.1516,-0.1302,-0.2432
9.04,0.6989,-0.549,9.6276,-0.1323,0.1059,-0.0828
9.06,0.6234,-0.7062,9.5486,-0.2655,0.12,0.0617
9.08,0.3345,-0.7045,9.7731,-0.1768,0.0651,0.0466
9.1,0.4074,-0.6944,10.0095,-0.0685,-0.0418,0.0782
9.12,0.431,-0.9639,9.7822,-0.0381,-0.0742,0.0408
9.14,0.8021,-0.8118,9.9164,0.0089,-0.0051,0.0068
9.16,0.8152,-0.9564,9.9253,0.0244,-0.0001,0.0223
9.18,0.7072,-0.8621,10.0125,0.0484,-0.0447,0.0334
9.2,0.7979,-0.6183,10.087,0.0759,-0.0296,0.051
9.22,0.9479,-0.6486,9.6554,0.197,0.0541,0.1094
9.24,0.8651,-1.0378,9.5022,0.2933,0.1609,0.0515
9.26,0.5295,-0.6852,9.3474,0.1774,0.1238,-0.0246
9.28,0.3162,-1.1857,9.1242,-0.0502,-0.0875,-0.2001
9.3,0.099,-0.8797,9.2402,-0.5334,-0.3372,-0.3767
9.32,-0.2119,-0.96,8.9984,-0.8996,-0.413,-0.4858
9.34,-0.5481,-0.6694,10.0218,-0.9016,-0.0081,-0.3768
9.36,0.2365,-0.3592,12.1523,-0.3865,0.433,-0.1695
9.38,1.0237,-0.7149,12.1813,0.2985,0.4856,0.1416
9.4,1.3432,-0.9601,10.4176,0.8457,0.0871,0.3719
9.42,1.4467,-0.6393,9.2753,0.9592,-0.3259,0.4659
9.44,1.0343,-0.7604,9.1032,0.6777,-0.3968,0.3949
9.46,0.7245,-0.9377,9.1896,0.2082,-0.1148,0.2623
9.48,0.478,-0.7828,9.0037,-0.1387,0.1213,0.0998
9.5,0.4488,-1.1271,9.7308,-0.2169,0.1426,0.0058
9.52,0.4968,-1.1504,9.5117,-0.1527,0.0534,-0.0657
9.54,0.2581,-0.6406,9.7419,-0.0468,-0.0219,-0.0332
9.56,0.5625,-0.7978,9.9161,0.0476,-0.0256,-0.0361
9.58,0.6123,-0.7545,10.031,0.0351,0.0246,0.0206
9.6,0.3643,-0.7768,9.5792,0.0271,-0.0575,-0.0308
9.62,0.4423,-1.0122,9.4795,-0.0166,-0.0024,-0.0497
9.64,0.5862,-0.8183,9.8676,0.0245,-0.0479,-0.0189
9.66,0.5027,-0.8379,9.9638,0.1434,-0.0161,-0.0241
9.68,0.5853,-0.8544,9.4219,0.1906,0.0379,-0.1118
9.7,0.776,-0.9264,9.6386,0.313,0.1671,-0.0479
9.72,0.748,-0.6108,9.2953,0.2223,0.159,0.0404
9.74,0.5501,-0.577,8.6188,-0.0559,-0.1093,0.2079
9.76,0.4127,-0.6411,9.0904,-0.5166,-0.3319,0.4088
9.78,-0.4323,-0.771,8.686,-1.0003,-0.4703,0.5047
9.8,-0.7736,-0.8887,10.0849,-0.9943,-0.03,0.4632
9.82,-0.5259,-1.4584,11.637,-0.5246,0.4545,0.2257
9.84,1.0269,-0.9757,12.9252,0.314,0.5991,-0.1168
9.86,1.5253,-1.0818,10.3924,0.9442,0.11,-0.3977
9.88,1.541,-1.0291,8.8475,1.0381,-0.3625,-0.5493
9.9,0.7731,-0.8812,9.0168,0.7236,-0.4381,-0.4368
9.92,0.3661,-0.5377,8.9828,0.2076,-0.1521,-0.2883
9.94,0.3856,-0.5619,9.0991,-0.1614,0.1241,-0.0837
9.96,0.5267,-0.6184,9.2741,-0.2443,0.1695,0.0494
9.98,0.2663,-0.6818,9.6531,-0.1947,0.0701,0.0642
10.0,0.4936,-0.9401,10.042,-0.0644,-0.0188,0.0718
10.02,0.4878,-0.9292,9.7526,-0.0475,-0.0641,0.0345
10.04,0.3372,-0.8877,9.7734,0.015,-0.08,-0.0081
10.06,0.5896,-0.8556,10.0346,0.1141,-0.0309,0.0507
10.08,0.5349,-0.9628,9.5492,0.18,-0.0129,0.0565
10.1,0.6077,-1.2151,9.4068,0.242,0.1131,0.0208
10.12,0.617,-0.9171,9.2627,0.2093,0.1178,-0.0038
10.14,0.8917,-0.9929,9.3004,-0.0377,-0.0064,-0.2179
10.16,0.5524,-0.8208,9.1732,-0.5068,-0.3914,-0.3846
10.18,-0.1806,-0.6487,8.7553,-0.9612,-0.4198,-0.5549
10.2,-0.8447,-0.593,9.741,-1.0407,-0.1106,-0.5191
10.22,-0.1437,-0.3689,11.9861,-0.6079,0.4269,-0.2938
10.24,0.8884,-0.4133,12.5833,0.2145,0.6048,0.1063
10.26,2.0514,-0.5227,11.46,0.9269,0.2013,0.3881
10.28,1.6885,-0.4504,9.5261,1.1216,-0.3035,0.5236
10.3,1.0299,-0.89,8.8494,0.8021,-0.4872,0.4417
10.32,0.5911,-0.6916,9.0417,0.265,-0.1857,0.3734
10.34,0.5024,-0.8344,9.2999,-0.1387,0.0854,0.0874
10.36,0.4788,-0.8692,9.4703,-0.2513,0.1476,-0.0193
10.38,0.4679,-1.1664,9.6395,-0.1863,0.0765,-0.0765
10.4,0.3799,-0.6593,10.1563,-0.0915,-0.0122,-0.0826
10.42,0.6391,-0.6638,9.8784,-0.0009,-0.0384,-0.0395
10.44,0.7155,-0.7839,10.1125,0.0149,-0.0204,-0.0241
10.46,0.4087,-0.945,9.6846,0.0024,0.0144,-0.0117
10.48,0.8375,-0.8046,9.7499,-0.009,-0.0399,-0.0565
10.5,0.4321,-0.7996,9.8614,-0.0258,-0.038,-0.0519
10.52,0.4673,-0.7623,9.9223,0.1041,-0.0212,-0.0715
10.54,1.0508,-1.1815,9.829,0.2436,0.0369,-0.0689
10.56,0.7868,-0.7827,9.4529,0.3292,0.174,-0.0228
10.58,0.7052,-0.407,9.2289,0.2473,0.0842,0.1161
10.6,0.6266,-0.977,8.8124,-0.1739,-0.1357,0.3015
10.62,0.1497,-0.7695,8.7853,-0.733,-0.4671,0.4499
10.64,-0.6239,-1.184,8.739,-1.1537,-0.4498,0.5554
10.66,-0.6486,-1.3199,10.7959,-1.0296,0.1118,0.495
10.68,0.0197,-1.2558,12.7864,-0.4205,0.6358,0.1718
10.7,1.1102,-1.2532,12.6478,0.4602,0.5654,-0.2453
10.72,1.9864,-1.0788,10.3559,1.0641,0.0355,-0.4863
10.74,1.5229,-0.9605,8.9422,1.1208,-0.4674,-0.5917
10.76,0.9123,-0.6645,8.9705,0.7356,-0.4352,-0.4456
10.78,0.5428,-0.7315,8.9304,0.1645,-0.0823,-0.268
10.8,0.4322,-0.7003,9.0679,-0.2029,0.1543,-0.0712
10.82,0.481,-0.7151,9.3478,-0.3092,0.1338,0.0482
10.84,0.1988,-0.7761,9.4253,-0.229,0.0439,0.1039
10.86,0.3998,-0.8804,10.1302,-0.0741,-0.0408,0.0927
10.88,0.439,-0.6751,9.806,0.0044,-0.0312,0.0598
10.9,0.5168,-0.7375,10.0212,0.0973,0.003,0.0394
10.92,0.4821,-0.8673,9.4679,0.0099,-0.0339,0.0336
10.94,0.6582,-0.962,9.6908,0.0115,-0.0107,-0.011
10.96,0.152,-0.9192,9.7792,0.0155,-0.0565,0.0388
10.98,0.3578,-0.759,9.6857,0.0391,-0.0599,0.0291
11.0,0.6356,-0.9947,9.9063,0.1708,-0.0142,0.0267
11.02,0.5501,-0.8171,9.7466,0.2398,0.0737,0.0539
11.04,0.6076,-0.8882,9.2203,0.1963,0.0838,-0.0326
11.06,0.3059,-1.0598,8.7227,0.0307,-0.0057,-0.1316
11.08,0.4146,-1.1209,8.9304,-0.3348,-0.2566,-0.2693
11.1,-0.0192,-1.055,9.0156,-0.733,-0.3506,-0.413
11.12,-0.7828,-0.864,9.0775,-0.862,-0.1946,-0.4114
11.14,-0.3304,-0.7694,10.7569,-0.5116,0.2601,-0.2374
11.16,1.0875,-0.3507,12.5843,0.0976,0.5048,0.0265
11.18,1.521,-0.5124,10.8591,0.6104,0.2073,0.2871
11.2,1.4241,-0.7482,9.4135,0.8527,-0.1972,0.3968
11.22,1.0378,-0.9277,8.8862,0.668,-0.3996,0.4018
11.24,0.5197,-0.807,9.0254,0.2601,-0.1911,0.2624
11.26,0.5622,-0.9885,9.0956,-0.0816,0.0523,0.1327
11.28,0.7101,-0.7671,9.5304,-0.1492,0.1375,0.0179
11.3,0.3327,-0.8729,9.4586,-0.1748,0.0748,-0.0418
11.32,0.324,-1.0235,9.8816,-0.0501,0.0249,-0.0526
11.34,0.5383,-0.6094,9.9771,-0.025,-0.0358,-0.0303
11.36,0.6827,-0.8612,10.0053,0.0427,0.0033,-0.0236
11.38,0.312,-0.7662,9.6337,-0.0142,-0.0468,-0.045
11.4,0.468,-0.8145,10.1198,0.0115,0.0039,-0.0057
11.42,0.4033,-1.0487,9.6939,0.005,-0.0195,-0.0093
11.44,0.8238,-0.6221,10.3121,0.0828,0.0022,-0.0574
11.46,0.4616,-0.674,9.4556,0.1995,0.0025,-0.0763
11.48,0.6478,-0.6156,9.4886,0.2935,0.1121,-0.0511
11.5,0.7251,-0.8476,9.6451,0.2814,0.1916,0.0692
11.52,0.6387,-0.8042,9.2713,-0.0331,-0.0604,0.2052
11.54,-0.0737,-1.0846,8.6026,-0.6235,-0.4666,0.415
11.56,-0.3172,-1.0724,8.8827,-1.0175,-0.4525,0.5593
11.58,-0.7394,-0.7705,10.0908,-1.0594,-0.0281,0.5086
11.6,-0.1506,-1.2978,12.3844,-0.5643,0.5484,0.2488
11.62,1.2332,-1.0688,13.6113,0.2581,0.6215,-0.1035
11.64,1.5753,-1.2558,10.495,1.0109,0.1802,-0.4098
11.66,1.7768,-0.8265,9.1716,1.1521,-0.3528,-0.581
11.68,1.0963,-0.8563,8.8756,0.7952,-0.5034,-0.4752
11.7,0.9841,-0.5909,9.0236,0.3061,-0.1457,-0.2833
11.72,0.1579,-0.6541,9.0288,-0.1715,0.1126,-0.1558
11.74,0.5973,-0.7864,9.5342,-0.2606,0.202,-0.0061
11.76,0.4515,-0.4425,9.7631,-0.207,0.0866,0.0682
11.78,0.3857,-1.0022,10.1046,-0.1311,-0.0437,0.0903
11.8,0.4957,-0.7556,10.1313,0.0024,-0.0373,0.0114
11.82,0.4236,-0.7881,10.0121,-0.0006,-0.0214,0.0293
11.84,0.8317,-0.7938,9.8154,0.044,0.0083,0.0268
11.86,0.3497,-0.9783,9.7661,0.0367,-0.0053,0.0046
11.88,0.576,-0.7713,9.8823,0.0099,0.0081,0.0314
11.9,0.485,-0.8171,9.9181,0.0314,-0.0335,0.047
11.92,0.8864,-0.9409,9.84,0.1276,-0.0558,0.0748
11.94,0.6911,-0.9182,9.4374,0.1983,0.0124,0.0101
11.96,0.465,-1.1308,9.3702,0.2829,0.1067,0.0228
11.98,0.6185,-1.0063,8.946,0.1415,0.0665,-0.0957
12.0,0.4426,-0.9375,8.7037,-0.2866,-0.2327,-0.3043
12.02,0.1524,-0.8014,8.6425,-0.7273,-0.4779,-0.43
12.04,-0.4837,-1.0797,8.9584,-1.0584,-0.3598,-0.5082
12.06,-1.1033,-0.8294,10.3789,-0.8591,0.1439,-0.3832
12.08,0.4237,-0.4502,12.9833,-0.2254,0.5536,-0.0994
12.1,0.9998,-0.378,11.5382,0.5439,0.4229,0.2364
12.12,1.7829,-0.5984,10.1513,1.0058,-0.0464,0.4747
12.14,1.2736,-0.6842,9.0359,0.9985,-0.4858,0.5092
12.16,0.6372,-1.1142,8.9776,0.5041,-0.343,0.3718
12.18,0.4949,-0.9005,8.9009,0.0114,-0.004,0.1846
12.2,0.4799,-0.9344,9.4492,-0.2064,0.192,0.049
12.22,0.1026,-1.0754,9.1288,-0.272,0.1232,-0.0594
12.24,0.129,-0.6636,9.4945,-0.1624,0.0026,-0.111
12.26,0.5704,-0.8369,10.1765,-0.0602,-0.0269,-0.0533
12.28,0.5022,-0.7015,9.9767,0.039,-0.048,-0.0316
12.3,0.6825,-0.7324,10.2299,0.0634,0.0289,-0.0076
12.32,0.4586,-0.7078,9.7117,-0.0287,-0.0242,0.0261
12.34,0.4585,-1.0115,9.5519,0.0012,-0.041,-0.0524
12.36,0.5484,-0.7065,10.0707,0.0772,-0.0259,-0.0312
12.38,0.6187,-0.8144,9.3321,0.1933,0.0164,-0.1057
12.4,0.7644,-1.0394,9.1503,0.2666,0.1346,-0.0501
12.42,0.5286,-0.7851,9.1334,0.2204,0.1584,0.0387
12.44,0.4081,-0.6528,9.074,-0.0311,0.0002,0.2463
12.46,0.2391,-0.9486,8.9997,-0.5317,-0.3431,0.4006
12.48,-0.2462,-0.8738,8.991,-0.893,-0.4456,0.5052
12.5,-0.7366,-0.9174,9.7778,-0.9585,-0.0363,0.4732
12.52,-0.1946,-1.0585,12.0092,-0.442,0.4626,0.1886
12.54,1.0912,-1.2924,12.8017,0.2476,0.5232,-0.1434
12.56,1.4142,-1.3211,10.15,0.9067,0.1295,-0.3937
12.58,1.4769,-1.0552,8.7967,1.0167,-0.3588,-0.5219
12.6,0.8272,-0.9852,8.4709,0.6524,-0.4252,-0.4854
12.62,0.6224,-0.7914,8.9921,0.2256,-0.1986,-0.2608
12.64,0.3454,-0.8154,9.2977,-0.1535,0.0749,-0.0986
12.66,0.3853,-0.813,9.4269,-0.2698,0.1198,0.0201
12.68,0.2357,-0.5203,9.7411,-0.1895,0.0556,0.0376
12.7,0.4011,-0.9745,9.901,-0.0654,-0.0173,0.0869
12.72,0.3862,-0.6689,10.0002,-0.0352,-0.0427,0.0398
12.74,0.7929,-0.7107,9.8576,0.0336,-0.0283,0.0357
12.76,0.9637,-1.0253,9.8442,0.02,0.0112,0.0066
12.78,0.5752,-0.7568,9.6316,0.0045,-0.064,0.0526
12.8,0.3446,-0.9876,10.0893,0.0477,-0.0533,0.0223
12.82,0.8503,-0.8,9.8969,0.174,0.0292,0.1022
12.84,0.5948,-0.9679,9.5183,0.2318,0.1556,0.084
12.86,0.7701,-1.0491,9.4235,0.2333,0.1812,-0.0153
12.88,0.5636,-0.9235,8.9924,0.0358,0.036,-0.1734
12.9,0.5477,-0.8034,9.0425,-0.3968,-0.2907,-0.3628
12.92,0.0319,-1.1509,8.7737,-0.9101,-0.4285,-0.4906
12.94,-0.4625,-0.4221,9.7416,-0.9886,-0.1808,-0.4734
12.96,-0.6607,-0.5704,11.23,-0.643,0.3577,-0.2826
12.98,0.76,-0.576,12.5961,0.0629,0.5949,0.0128
13.0,1.9674,-0.5468,11.6658,0.8086,0.275,0.3399
13.02,1.6493,-0.7133,9.202,1.0296,-0.2613,0.4815
13.04,1.5159,-0.6345,9.3675,0.8676,-0.4328,0.4906
13.06,0.7101,-0.4471,9.0558,0.3655,-0.2399,0.331
13.08,0.8688,-0.6845,9.386,-0.0467,0.0662,0.1316
13.1,0.5778,-0.8549,9.7131,-0.26,0.1982,0.005
13.12,0.6983,-1.1927,9.7052,-0.2154,0.0961,-0.061
13.14,0.5829,-0.8161,9.8149,-0.1137,-0.0088,-0.0868
13.16,0.7431,-1.0597,9.6523,-0.0539,-0.0934,-0.0843
13.18,0.7148,-0.7514,9.9308,0.0611,0.0077,-0.0361
13.2,0.8319,-0.9067,9.7055,-0.0014,-0.0512,-0.0119
13.22,0.7292,-0.8393,9.8555,-0.0153,0.0096,0.0056
13.24,0.5579,-0.7315,9.7912,0.0044,-0.0274,-0.0357
13.26,0.8072,-1.0044,9.9675,0.0568,-0.0442,-0.0675
13.28,0.8256,-0.9776,9.7475,0.095,-0.0099,-0.0571
13.3,1.0455,-0.4882,9.8467,0.2272,0.0464,-0.0845
13.32,0.9943,-0.754,9.5549,0.2879,0.1535,-0.0176
13.34,0.8355,-0.4879,9.0838,0.1765,0.0811,0.0895
13.36,0.6655,-0.67,9.1157,-0.2149,-0.2053,0.2923
13.38,0.4514,-1.1869,8.6798,-0.7029,-0.4658,0.3616
13.4,0.0023,-0.9527,9.5103,-0.9064,-0.2705,0.5059
13.42,-0.6777,-1.3214,10.3313,-0.7788,0.156,0.3339
13.44,0.7549,-0.8814,12.7172,-0.1641,0.5274,0.0725
13.46,1.2932,-1.2306,11.5128,0.5389,0.4171,-0.1939
13.48,1.7645,-1.1928,9.9806,0.9341,-0.0718,-0.3918
13.5,1.2925,-0.5942,9.158,0.8839,-0.3856,-0.4707
13.52,1.0426,-1.0841,8.9312,0.5089,-0.3114,-0.3548
13.54,0.6684,-0.9244,9.2989,0.0872,-0.0365,-0.2243
13.56,0.614,-0.5518,9.5076,-0.1804,0.1321,-0.0137
13.58,0.7865,-0.6746,9.4239,-0.2394,0.1228,0.0298
13.6,0.4074,-0.9575,9.5322,-0.1867,0.0058,0.0272
13.62,0.7874,-0.657,10.1539,-0.027,-0.0269,0.0577
13.64,0.7828,-0.8104,9.8999,0.0115,-0.022,0.0292
13.66,0.6005,-1.2273,9.7146,-0.0223,-0.0374,0.0059
13.68,0.5094,-1.0312,9.5951,0.0209,-0.0176,0.0009
13.7,0.5132,-0.728,9.8392,0.0229,0.0337,0.0466
13.72,0.8285,-1.0571,9.9852,0.0085,-0.0341,0.0281
13.74,0.7056,-1.1137,9.5576,0.0805,-0.0331,0.0824
13.76,0.6453,-1.0741,9.4049,0.1936,0.0052,0.0624
13.78,0.7305,-0.8611,9.3155,0.2699,0.1352,0.0515
13.8,0.73,-1.3194,8.867,0.1791,0.1528,-0.0623
13.82,0.8286,-0.9914,8.8619,-0.0763,-0.0996,-0.2173
13.84,0.466,-1.0497,8.8665,-0.5107,-0.3694,-0.3701
13.86,0.1086,-0.9088,8.8,-0.9599,-0.429,-0.5261
13.88,-0.4279,-0.8675,9.8224,-0.9701,-0.047,-0.4326
13.9,0.2101,-0.3099,12.8274,-0.4458,0.4909,-0.1874
13.92,0.8993,-0.9884,11.6114,0.218,0.5125,0.1121
13.94,1.9264,-0.4827,10.51,0.8806,0.109,0.391
13.96,1.521,-0.9223,9.0809,1.0381,-0.3233,0.5227
13.98,0.9848,-1.0468,8.9067,0.6882,-0.3928,0.4202
14.0,0.4649,-1.1658,8.9075,0.1744,-0.1779,0.238
14.02,0.4996,-1.2619,9.1112,-0.1439,0.1006,0.0819
14.04,0.7059,-1.1645,9.2004,-0.2604,0.1146,0.0051
14.06,0.3191,-1.0662,9.3808,-0.1901,0.0858,-0.0686
14.08,0.5946,-0.8396,9.7938,-0.1203,-0.0297,-0.058
14.1,0.8087,-0.8271,9.8171,-0.0107,-0.0754,-0.0316
14.12,1.1851,-0.7174,10.0205,0.0327,0.0034,-0.0039
14.14,0.4917,-1.0643,9.7558,-0.0268,-0.0013,0.0299
14.16,0.8385,-0.849,10.0247,0.0364,0.0119,0.0572
14.18,0.9027,-0.9733,9.859,-0.0109,-0.0145,-0.0007
14.2,0.5184,-0.9464,9.8668,-0.0199,-0.0536,-0.0197
14.22,1.063,-1.0115,9.7779,0.0669,-0.0453,-0.0401
14.24,0.7379,-0.9488,9.7029,0.1667,0.0507,-0.0594
14.26,0.8528,-0.8285,9.6115,0.2533,0.1552,0.0225
14.28,0.5766,-0.7185,9.4822,0.1594,0.1092,0.0813
14.3,1.0491,-0.9222,9.2019,-0.1515,-0.1396,0.2345
14.32,0.3614,-0.792,8.7208,-0.6229,-0.421,0.3652
14.34,0.0499,-1.0048,9.5169,-0.8986,-0.3476,0.4738
14.36,-0.1222,-1.0081,11.0387,-0.7671,0.1148,0.3184
14.38,0.0842,-1.5062,11.6996,-0.2642,0.5117,0.1163
14.4,1.7753,-1.0028,12.7067,0.4549,0.4399,-0.1946
14.42,1.7321,-1.147,9.95,0.8903,-0.0212,-0.4108
14.44,1.452,-1.0563,9.0731,0.8657,-0.3728,-0.4728
14.46,1.127,-0.8375,9.2706,0.5291,-0.3497,-0.3237
14.48,0.7975,-0.7495,9.1981,0.0934,-0.0629,-0.2026
14.5,0.8677,-0.8147,9.2252,-0.1652,0.1453,-0.0709
14.52,0.6809,-1.1302,9.5243,-0.2662,0.1411,0.054
14.54,0.7782,-1.0454,9.7326,-0.1582,0.0612,0.0505
14.56,0.5513,-0.9119,9.7363,-0.0634,-0.0164,0.0577
14.58,0.867,-0.8249,9.8686,-0.0238,-0.066,0.0173
14.6,0.7999,-0.978,9.9299,0.0166,-0.006,0.026
14.62,0.9168,-0.8488,9.9447,0.0334,0.0154,-0.0072
14.64,0.6109,-0.9107,9.8765,0.0272,-0.0274,0.0529
14.66,0.7055,-0.9643,10.1112,0.0582,-0.0644,0.0652
14.68,0.9147,-0.7982,9.8603,0.1744,-0.009,0.0455
14.7,1.0501,-0.9649,9.5414,0.2057,0.125,0.033
14.72,0.9512,-0.9174,9.42,0.2487,0.1548,-0.024
14.74,0.5667,-1.1196,8.8605,-0.0806,-0.048,-0.1919
14.76,0.4815,-1.1427,8.9273,-0.5317,-0.3294,-0.3764
14.78,0.1233,-0.8655,9.1339,-0.9283,-0.4207,-0.4746
14.8,-0.1646,-0.7529,10.0564,-0.9076,0.0003,-0.4222
14.82,-0.0058,-0.2117,12.1952,-0.4007,0.438,-0.2048
14.84,0.9311,-0.7095,11.8498,0.2384,0.4758,0.102
14.86,2.1048,-0.3818,11.0074,0.9036,0.1298,0.355
14.88,1.3176,-0.8596,9.0825,0.9347,-0.365,0.4554
14.9,0.9634,-0.8877,9.0287,0.667,-0.4047,0.4227
14.92,1.046,-1.2364,9.1152,0.1929,-0.1525,0.252
14.94,0.5445,-1.2346,8.7952,-0.1439,0.0897,0.08
14.96,0.4935,-0.9767,9.5488,-0.2978,0.1618,-0.0341
14.98,0.5865,-0.9926,9.2743,-0.1873,0.0112,-0.0614
15.0,0.6715,-0.7342,10.3207,-0.0489,-0.0449,-0.0725
15.02,0.7971,-1.0593,9.8518,0.0028,0.0028,-0.0219
15.04,0.5314,-0.9654,9.9911,0.0023,0.02,-0.0281
15.06,0.5541,-1.1704,9.4095,-0.003,-0.001,-0.0082
15.08,0.6384,-0.9394,9.9048,0.0234,-0.0297,-0.0339
15.1,0.5943,-0.9423,9.7912,0.0437,-0.0167,-0.0789
15.12,0.7091,-1.0016,9.9958,0.1536,0.0406,-0.0771
15.14,0.9466,-0.4106,9.1874,0.2258,0.1294,-0.0289
15.16,0.904,-1.1505,8.9275,0.1993,0.0991,0.033
15.18,0.5689,-0.8087,8.839,-0.0587,-0.0304,0.1379
15.2,0.4006,-0.7379,8.7278,-0.4225,-0.3691,0.3364
15.22,0.2729,-0.9496,9.2396,-0.8104,-0.4066,0.4694
15.24,-0.6992,-1.3623,9.1794,-0.947,-0.1205,0.4577
15.26,-0.0252,-1.3851,11.3138,-0.5653,0.4103,0.2698
15.28,0.6488,-1.4835,11.6737,0.1266,0.4854,-0.0665
15.3,1.4112,-1.3095,10.5037,0.7299,0.2128,-0.3154
15.32,1.5467,-1.3691,8.9894,0.962,-0.2939,-0.4753
15.34,1.0854,-0.8369,8.9985,0.7214,-0.4134,-0.4385
15.36,0.7279,-0.7897,9.1352,0.2741,-0.2277,-0.278
15.38,0.6839,-0.7937,9.0677,-0.1157,0.0597,-0.0914
15.4,0.9988,-0.8645,9.4505,-0.2391,0.1625,-0.0145
15.42,0.5931,-0.969,9.6228,-0.183,0.0769,0.0453
15.44,0.3817,-1.1171,9.2879,-0.1301,-0.079,0.0445
15.46,0.7521,-0.6349,10.1119,-0.0184,-0.0423,0.0197
15.48,0.694,-1.2099,9.6263,0.003,-0.0573,0.0175
15.5,0.7889,-0.859,9.9303,0.0075,0.0075,0.0256
15.52,0.6346,-1.0045,9.7071,-0.0044,-0.0207,0.0229
15.54,1.0935,-0.8546,10.065,0.0552,-0.0004,0.0333
15.56,0.794,-0.9242,9.8475,0.1136,-0.0031,0.0495
15.58,0.9744,-0.9476,9.9004,0.2987,0.1029,0.0941
15.6,0.9638,-0.8919,9.7499,0.3138,0.1984,-0.0128
15.62,0.8265,-1.0585,9.1797,0.0386,0.0302,-0.1543
15.64,0.4191,-1.0121,9.0516,-0.3769,-0.3085,-0.3753
15.66,0.1282,-0.8784,9.0912,-0.8991,-0.4698,-0.5028
15.68,-0.1114,-0.6652,9.6893,-1.0721,-0.1919,-0.4894
15.7,-0.1457,-0.7453,11.1138,-0.656,0.3744,-0.2863
15.72,1.2365,-0.2902,13.1523,0.0304,0.6,0.0185
15.74,1.6994,-0.6557,11.1263,0.7763,0.317,0.3372
15.76,1.9955,-0.7548,9.3995,1.0512,-0.2375,0.5123
15.78,0.905,-0.8902,8.8204,0.8131,-0.4625,0.5083
15.8,0.9317,-1.0166,9.1764,0.3786,-0.2387,0.3177
15.82,0.7325,-1.0414,9.5262,-0.0647,0.066,0.1639
15.84,0.5936,-0.8818,9.3871,-0.2642,0.1815,0.0368
15.86,0.4345,-0.987,9.3939,-0.2797,0.083,-0.0852
15.88,0.568,-1.3462,9.9531,-0.1553,-0.0296,-0.0506
15.9,0.8423,-0.885,10.121,-0.036,-0.0789,-0.045
15.92,0.7194,-0.8759,10.078,0.0316,-0.073,0.0039
15.94,0.436,-0.9098,9.6573,-0.0008,-0.0161,0.0001
15.96,0.7488,-1.1598,10.182,0.0216,0.0103,-0.0108
15.98,0.7681,-1.091,9.4934,-0.0276,-0.0498,-0.0237
16.0,0.7757,-1.1733,9.6522,-0.0321,-0.0513,-0.0565
16.02,0.6704,-1.1213,9.7718,-0.0059,-0.0389,-0.0271
16.04,0.9477,-1.005,9.8034,0.1276,-0.0166,-0.0626
16.06,0.6222,-0.9496,9.7088,0.2536,0.1078,-0.049
16.08,0.6177,-0.9728,9.3496,0.2712,0.1321,-0.0448
16.1,0.8336,-0.8929,9.2753,0.0811,0.0431,0.1066
16.12,0.6397,-0.9843,9.094,-0.2768,-0.2051,0.2724
16.14,0.2177,-0.8792,8.9778,-0.7106,-0.376,0.4128
16.16,-0.3165,-1.1029,9.1205,-0.8839,-0.2773,0.4222
16.18,-0.144,-0.9922,11.1413,-0.7241,0.1921,0.2934
16.2,0.3523,-1.281,11.8201,-0.1284,0.528,0.0434
16.22,1.6348,-1.15,11.8658,0.5424,0.3312,-0.2356
16.24,1.5869,-0.9077,9.7251,0.8726,-0.0923,-0.3782
16.26,1.2251,-0.8967,9.0446,0.7667,-0.3698,-0.4285
16.28,0.9753,-0.9267,9.1349,0.4226,-0.2752,-0.3071
16.3,0.9242,-0.7818,9.3465,0.0526,0.0287,-0.1329
16.32,0.4638,-0.838,9.2773,-0.2178,0.172,0.0204
16.34,0.5704,-0.7252,9.5109,-0.2071,0.097,0.0579
16.36,0.1606,-1.0015,9.3291,-0.1667,0.023,0.0629
16.38,0.6725,-0.8827,9.7843,-0.0639,-0.0201,0.0675
16.4,0.934,-0.88,9.5411,-0.0113,-0.0385,0.0253
16.42,0.5694,-0.9355,9.6132,0.0124,0.0023,-0.0023
16.44,0.448,-1.0094,9.3785,-0.0293,-0.0052,0.0439
16.46,0.7667,-0.7188,9.6512,-0.0074,-0.0002,-0.0102
16.48,0.8309,-0.6012,9.8671,0.0127,-0.0123,0.0515
16.5,0.9024,-1.0824,9.7373,0.1059,-0.0079,0.0696
16.52,1.0638,-0.9033,9.5822,0.2644,0.0532,0.0801
16.54,0.7619,-0.8836,9.4879,0.3062,0.187,0.0713
16.56,0.5485,-1.0894,8.8667,0.1357,0.1157,-0.1011
16.58,0.3018,-1.009,8.7591,-0.2083,-0.1585,-0.2662
16.6,0.308,-1.1567,8.6294,-0.7236,-0.4667,-0.4436
16.62,-0.3893,-0.6693,9.0722,-1.019,-0.323,-0.4843
16.64,-0.3676,-0.5273,10.7904,-0.8192,0.1682,-0.3547
16.66,0.1361,-0.6959,11.998,-0.2506,0.6028,-0.0893
16.68,1.832,-0.3412,12.6308,0.5222,0.4777,0.2407
16.7,1.4656,-0.817,9.7886,0.9866,-0.0145,0.4321
16.72,1.0757,-1.0973,8.8316,0.9159,-0.4367,0.5463
16.74,0.7226,-1.0915,8.8826,0.5489,-0.3945,0.3698
16.76,0.7086,-0.9235,9.0226,0.0852,-0.0203,0.2304
16.78,0.3741,-1.0009,9.1796,-0.2712,0.1469,0.0355
16.8,0.6204,-0.9276,9.3956,-0.2837,0.1588,-0.0627
16.82,0.4571,-0.9883,9.3794,-0.1904,-0.0226,-0.0747
16.84,0.5557,-1.267,9.636,-0.0789,-0.0503,-0.0622
16.86,0.8278,-1.0565,9.7667,-0.0271,-0.0453,-0.0229
16.88,0.9026,-0.6313,10.0459,0.001,0.0258,-0.0354
16.9,0.8,-1.0458,9.8183,-0.0382,-0.0617,-0.0105
16.92,0.5848,-1.2084,9.7541,0.0387,-0.0432,-0.0795
16.94,0.8541,-0.9017,9.815,0.1396,0.005,-0.0536
16.96,0.8424,-0.6624,9.4362,0.224,0.1152,-0.0856
16.98,0.7313,-0.944,9.0353,0.1852,0.1449,-0.0039
17.0,0.9005,-0.9417,9.0909,0.0715,0.0225,0.1406
17.02,0.8017,-0.7432,9.7293,-0.308,-0.2163,0.3216
17.04,-0.0423,-1.0471,9.0352,-0.7452,-0.4429,0.4322
17.06,-0.3685,-0.9885,9.6368,-0.9314,-0.2218,0.4108
17.08,-0.2758,-1.2477,11.5159,-0.6321,0.3316,0.2915
17.1,0.8379,-1.1662,12.5558,0.027,0.5432,0.0135
17.12,1.1934,-1.1036,10.9584,0.648,0.2833,-0.3302
17.14,1.8479,-1.1958,9.7913,0.9221,-0.1728,-0.4241
17.16,1.125,-1.0085,9.0082,0.7991,-0.4017,-0.4448
17.18,0.9173,-0.6343,9.3173,0.3151,-0.2944,-0.283
17.2,0.623,-1.0116,9.3752,-0.0771,0.0353,-0.1675
17.22,0.6346,-0.8224,9.6491,-0.2099,0.1733,0.0079
17.24,0.4882,-0.8117,9.4851,-0.2568,0.1252,0.0401
17.26,0.6218,-0.7477,9.8769,-0.1007,0.0402,0.0874
17.28,0.8267,-0.8054,9.9166,-0.0063,-0.0509,0.0588
17.3,0.7471,-0.9138,9.7337,-0.0244,-0.0343,0.0433
17.32,0.8602,-0.869,9.7361,-0.0162,0.007,0.0589
17.34,0.5704,-0.8917,9.737,-0.0046,-0.0261,0.0223
17.36,0.9169,-0.8448,10.2197,-0.0195,-0.0254,0.0402
17.38,0.7845,-0.8996,9.7863,0.0327,-0.0341,0.0672
17.4,0.9,-0.9909,9.8164,0.1676,0.0217,0.0811
17.42,0.9389,-1.0764,9.3618,0.2773,0.093,0.0404
17.44,0.9881,-0.8331,9.326,0.255,0.2061,-0.0115
17.46,0.5854,-1.298,8.9376,-0.0115,-0.0361,-0.2011
17.48,0.4491,-0.9526,8.8328,-0.4495,-0.3009,-0.3751
17.5,0.3185,-0.7108,9.038,-0.9749,-0.4869,-0.5308
17.52,-0.3727,-0.8562,9.495,-1.121,-0.1523,-0.4992
17.54,0.0771,-0.4673,11.8388,-0.7144,0.4256,-0.2537
17.56,1.068,-0.6218,12.6166,0.1325,0.6652,0.0355
17.58,1.7885,-0.4453,10.742,0.8367,0.2834,0.3526
17.6,1.8061,-0.7104,9.2823,1.1279,-0.253,0.5426
17.62,1.2563,-0.8533,8.5894,0.8204,-0.5086,0.4946
17.64,0.8434,-1.1954,9.1995,0.3294,-0.218,0.3554
17.66,0.3535,-1.0992,8.9831,-0.1666,0.0376,0.1186
17.68,0.5314,-0.9834,9.1759,-0.3132,0.2005,-0.0176
17.7,0.3523,-0.9185,9.2239,-0.2778,0.1183,-0.0686
17.72,0.6224,-1.0236,9.9464,-0.0983,-0.0215,-0.0812
17.74,0.5085,-0.8776,9.9966,-0.0147,-0.0277,-0.019
17.76,0.6434,-0.6576,9.8552,0.0578,0.0132,-0.015
17.78,0.6293,-0.6991,9.8868,0.0097,0.0099,-0.0155
17.8,0.617,-0.8852,9.5963,-0.0295,-0.0036,0.0123
17.82,0.5169,-1.1568,9.5435,-0.0036,-0.0392,-0.0432
17.84,0.5948,-0.986,9.7079,0.068,-0.0212,-0.0676
17.86,0.7437,-0.839,9.5792,0.1777,0.0616,-0.0553
17.88,0.7339,-0.8712,9.1302,0.239,0.1473,-0.0137
17.9,0.6533,-0.8533,9.224,0.1479,0.0966,0.0371
17.92,0.5256,-0.9074,9.0411,-0.2142,-0.1371,0.1903
17.94,0.5078,-0.9602,9.1012,-0.5643,-0.3491,0.4013
17.96,0.1626,-1.1832,9.2044,-0.8907,-0.2957,0.4545
17.98,-0.346,-1.2845,9.8834,-0.8382,0.0726,0.3719
18.0,0.6278,-1.2697,12.1899,-0.2662,0.4929,0.0987
18.02,0.721,-1.3192,11.0853,0.4164,0.4332,-0.215
18.04,1.726,-1.1715,10.212,0.8632,-0.0142,-0.3468
18.06,1.2237,-0.9288,8.9613,0.8345,-0.3447,-0.4487
18.08,0.6866,-1.0272,9.1474,0.4943,-0.3539,-0.3379
18.1,0.7852,-0.8266,9.0101,0.0697,-0.0523,-0.1883
18.12,0.5242,-0.986,9.0399,-0.2036,0.1394,-0.0676
18.14,0.185,-1.0972,9.3397,-0.2801,0.1091,0.0181
18.16,0.5295,-0.8759,9.5779,-0.1469,0.0335,0.0664
18.18,0.5485,-1.128,9.8422,-0.0642,-0.0311,0.0599
18.2,0.4953,-0.9619,9.8634,-0.0041,-0.0044,0.0269
18.22,0.8302,-0.8166,10.1041,0.043,-0.0259,0.0475
18.24,0.7637,-1.0528,9.846,-0.0198,-0.0065,0.0188
18.26,0.7339,-0.8806,10.1128,0.0359,-0.0137,0.0478
18.28,0.7854,-0.9033,10.2815,0.0869,0.0221,0.0673
18.3,1.2607,-0.759,9.8764,0.1548,0.0149,0.082
18.32,0.8056,-1.0967,9.5634,0.281,0.1433,0.0407
18.34,0.8516,-0.8563,9.2384,0.1897,0.1281,-0.0195
18.36,0.7886,-0.831,9.3962,-0.0299,0.0038,-0.1428
18.38,0.5952,-0.9604,9.118,-0.4456,-0.2952,-0.3658
18.4,0.0554,-0.7213,9.1702,-0.8162,-0.3972,-0.462
18.42,-0.309,-0.5294,10.0385,-0.9106,-0.0333,-0.4179
18.44,0.0129,-0.7373,11.3584,-0.5233,0.4009,-0.2463
18.46,1.0601,-0.3541,12.5067,0.1695,0.5299,0.1078
18.48,1.3821,-0.6489,10.4478,0.7897,0.1867,0.3629
18.5,1.4503,-0.6301,9.5337,0.9002,-0.2801,0.4671
18.52,0.9301,-0.902,9.0675,0.7011,-0.4129,0.3972
18.54,0.5219,-1.1388,9.2213,0.2557,-0.1775,0.253
18.56,0.7256,-0.99,9.0425,-0.1634,0.0549,0.0925
18.58,0.7134,-1.0625,9.5609,-0.2349,0.1826,0.0096
18.6,0.329,-0.7957,9.4045,-0.24,0.0319,-0.1071
18.62,0.5746,-0.9802,9.9777,-0.0843,-0.0266,-0.0534
18.64,0.8252,-0.6557,9.9492,-0.0126,-0.0759,-0.0268
18.66,0.7724,-0.8083,9.7904,-0.0186,-0.0211,-0.0081
18.68,0.7178,-0.8296,10.0933,-0.0265,0.0507,0.0086
18.7,0.4811,-0.8874,9.6467,-0.0253,-0.0177,0.0083
18.72,0.8497,-0.8319,10.2246,0.0297,-0.0287,-0.0388
18.74,0.8507,-0.6577,10.2144,0.0811,-0.009,-0.0528
18.76,1.0321,-0.6547,9.8202,0.1794,0.0314,-0.0402
18.78,0.9731,-0.7501,9.695,0.2716,0.1374,-0.0865
18.8,0.7223,-0.7447,9.4962,0.1972,0.1574,0.0349
18.82,0.4002,-0.4563,9.3231,-0.0438,0.0009,0.2142
18.84,0.4466,-0.672,9.2843,-0.472,-0.2958,0.3385
18.86,-0.0549,-1.134,8.9525,-0.8658,-0.3659,0.4286
18.88,-0.3529,-1.0923,9.7832,-0.8759,-0.006,0.4283
18.9,0.1058,-1.2057,11.4605,-0.4751,0.412,0.1951
18.92,1.2021,-1.3132,12.1029,0.2101,0.5497,-0.1273
18.94,1.271,-1.3065,10.1291,0.7808,0.1316,-0.3683
18.96,1.3622,-1.033,9.1612,0.9242,-0.3134,-0.4697
18.98,0.9446,-1.1151,8.7567,0.6344,-0.4244,-0.412
19.0,0.9949,-0.6546,9.5323,0.2293,-0.0872,-0.2391
19.02,0.5641,-0.8678,8.6568,-0.2029,0.107,-0.0912
19.04,0.5168,-0.8215,9.6166,-0.2709,0.1644,0.0232
19.06,0.3124,-0.8445,9.433,-0.1994,0.087,0.0243
19.08,0.458,-0.7351,9.8203,-0.0937,-0.0081,0.0483
19.1,0.7994,-0.8609,9.8412,-0.0125,-0.0589,0.0728
19.12,0.7941,-0.8091,9.8241,0.0295,-0.0065,0.0061
19.14,0.7048,-0.7843,9.8333,0.0718,0.0286,-0.0214
19.16,0.8182,-1.2327,9.5122,-0.0266,0.0106,0.0188
19.18,0.6442,-0.7875,9.9157,0.0255,0.0417,0.0476
19.2,0.6252,-0.9423,9.76,0.0147,-0.0125,0.0025
19.22,0.9393,-0.8436,9.708,0.0788,-0.0095,0.0429
19.24,0.6605,-0.948,9.3691,0.1199,0.0148,0.0549
19.26,1.1066,-1.074,9.5551,0.2487,0.153,0.0514
19.28,0.9589,-0.9473,9.1535,0.2043,0.1709,-0.0073
19.3,0.6792,-0.8894,9.0139,-0.0883,-0.0598,-0.2068
19.32,0.4963,-0.9457,9.0356,-0.5376,-0.3237,-0.3456
19.34,0.0595,-0.7591,8.8394,-0.9389,-0.3895,-0.469
19.36,-0.3035,-0.6512,9.9448,-0.9363,-0.0612,-0.4576
19.38,-0.135,-0.6424,11.5026,-0.4995,0.4393,-0.2175
19.4,1.0025,-0.6343,12.1376,0.2429,0.5503,0.1124
19.42,1.8249,-0.4551,10.8357,0.8571,0.1561,0.3691
19.44,1.4981,-0.5557,9.3594,0.9773,-0.3015,0.4894
19.46,1.1966,-0.7194,9.1986,0.6989,-0.3799,0.4155
19.48,0.5622,-1.109,9.0405,0.2267,-0.1334,0.2722
19.5,0.4807,-1.0311,9.1661,-0.1486,0.0897,0.1078
19.52,0.2506,-1.1268,9.134,-0.3066,0.1416,-0.0526
19.54,0.5943,-0.9018,9.6514,-0.2308,0.0532,-0.0631
19.56,0.6732,-1.1775,9.8846,-0.0863,0.0082,-0.0341
19.58,0.6932,-1.0584,9.7734,-0.0728,-0.038,-0.0193
19.6,0.809,-0.9673,9.767,-0.015,0.0023,0.0008
19.62,0.944,-0.8714,9.8288,0.046,-0.0379,-0.0226
19.64,0.7804,-0.8697,9.872,0.0351,0.008,-0.0247
19.66,0.6616,-0.6952,9.7849,0.0401,-0.0055,-0.041
19.68,0.8989,-0.9775,9.6871,0.1088,0.0415,-0.0607
19.7,0.8009,-0.5908,9.5054,0.2107,0.1234,-0.0471
19.72,0.7246,-0.7614,9.2788,0.1586,0.0969,0.006
19.74,0.7768,-0.6093,9.3519,-0.0843,-0.0686,0.1524
19.76,0.5709,-0.6766,9.1136,-0.4718,-0.3159,0.3149
19.78,0.2887,-0.9056,9.2713,-0.8075,-0.2811,0.4523
19.8,-0.3311,-1.0662,9.999,-0.8306,-0.0025,0.3408
19.82,0.7936,-1.0965,12.5238,-0.376,0.4253,0.1436
19.84,0.8987,-1.2961,11.4106,0.2087,0.4549,-0.1349
19.86,1.7388,-1.034,10.7478,0.7695,0.1063,-0.3273
19.88,1.2871,-0.9372,9.2451,0.8714,-0.2897,-0.4182
19.9,1.0055,-0.9654,8.7421,0.5828,-0.3366,-0.4057
19.92,0.7501,-0.9534,9.0184,0.1021,-0.1112,-0.2504
19.94,0.5975,-0.7272,9.3393,-0.1797,0.0699,-0.0727
19.96,0.5577,-0.9437,9.4322,-0.2369,0.1365,0.0144
19.98,0.6214,-0.9245,9.9542,-0.1525,0.0698,0.0836
20.0,0.977,-0.8027,9.967,-0.0561,-0.0204,0.0461
20.02,0.6413,-1.0665,9.9222,-0.0286,-0.016,0.0409
20.04,0.7746,-0.7387,9.8727,0.0101,0.0385,0.0071
20.06,0.7389,-1.1119,9.7863,-0.0129,0.0397,-0.0078
20.08,0.5383,-0.7956,9.8098,0.0213,0.0062,0.0064
20.1,0.8992,-0.8807,9.9798,0.0041,-0.0101,0.0305
20.12,0.5909,-0.7602,9.7775,0.0828,0.0031,0.0884
20.14,0.9992,-0.8323,9.8152,0.2103,0.0816,0.0573
20.16,0.7688,-1.0498,9.6282,0.23,0.1753,0.0449
20.18,0.8276,-0.8721,9.3462,0.0982,0.0612,-0.0898
20.2,0.6238,-0.9047,9.3427,-0.2678,-0.162,-0.2352
20.22,0.4902,-0.8015,9.3994,-0.6566,-0.3414,-0.3977
20.24,0.2638,-0.8496,9.5013,-0.8889,-0.2621,-0.437
20.26,0.1655,-0.7945,10.1146,-0.6879,0.2258,-0.323
20.28,0.8899,-0.5971,11.7224,-0.1872,0.5263,-0.0652
20.3,0.7442,-0.8135,10.1373,0.4689,0.3637,0.1965
20.32,1.1114,-0.7546,9.5375,0.8381,-0.0571,0.3628
20.34,0.9086,-0.879,9.0489,0.7774,-0.3576,0.4266
20.36,0.6607,-0.8984,9.1618,0.4012,-0.2694,0.2811
20.38,0.6135,-0.8457,9.5028,0.0143,0.006,0.16
20.4,0.4618,-0.8657,9.2684,-0.1897,0.1573,0.0366
20.42,0.6778,-0.9078,9.32,-0.2533,0.1051,-0.071
20.44,0.491,-0.9724,9.7539,-0.139,0.0213,-0.0632
20.46,0.6086,-0.8814,9.6901,-0.0557,-0.0438,-0.0385
20.48,0.5756,-0.8806,9.8895,-0.0228,-0.0088,-0.029
20.5,0.5661,-0.9375,9.585,0.0088,0.0081,-0.0096
20.52,0.6867,-0.899,9.651,-0.011,-0.0008,-0.0162
20.54,0.4712,-0.9953,9.5005,-0.0785,-0.0749,-0.04
20.56,0.746,-0.9129,9.7701,0.003,0.0167,0.0339
20.58,0.7789,-0.5863,9.7593,0.013,-0.0276,-0.0318
20.6,0.6679,-0.825,9.7089,0.102,-0.0138,-0.1044
20.62,0.5282,-1.0776,9.2935,0.2477,0.08,-0.1118
20.64,0.8131,-0.8,9.185,0.2773,0.17,-0.0233
20.66,0.3427,-0.7533,9.0547,0.1181,0.0819,0.0889
20.68,0.5544,-0.7501,8.9268,-0.292,-0.1999,0.3126
20.7,0.1912,-0.9826,8.9276,-0.8155,-0.4835,0.4451
20.72,-0.4351,-1.0014,9.0277,-1.0985,-0.312,0.5217
20.74,-0.1303,-0.9551,10.87,-0.838,0.2392,0.3673
20.76,0.1356,-1.2955,12.1263,-0.1823,0.6457,0.0566
20.78,1.9463,-0.7666,12.2891,0.5857,0.4688,-0.2527
20.8,1.7707,-0.8941,9.6882,1.0169,-0.1039,-0.4594
20.82,1.4794,-0.975,8.9031,0.9709,-0.4403,-0.5167
20.84,0.9012,-0.6675,8.9126,0.4914,-0.3363,-0.3702
20.86,0.5362,-0.9081,8.9799,-0.0373,-0.0147,-0.21
20.88,0.5666,-0.6474,9.5164,-0.2643,0.2025,-0.0228
20.9,0.5356,-0.6068,9.5641,-0.242,0.1276,0.0724
20.92,0.5224,-1.0497,9.5039,-0.1856,0.0218,0.0846
20.94,0.7819,-0.8319,10.005,-0.05,-0.0465,0.0621
20.96,1.007,-0.7638,10.2445,-0.026,-0.0129,0.0391
20.98,0.5491,-0.9346,9.5884,-0.0186,-0.0535,0.0026
21.0,0.6533,-0.8495,9.7093,0.0158,-0.0602,0.0336
21.02,0.8454,-0.7169,9.9114,0.0877,-0.0308,0.0285
21.04,0.906,-0.9729,9.6628,0.2159,0.1026,0.081
21.06,0.9936,-0.9894,9.9139,0.2867,0.2002,0.0371
21.08,0.6242,-0.9832,9.2179,0.1678,0.129,-0.0967
21.1,0.7979,-0.6358,9.5608,-0.1669,-0.0869,-0.2608
21.12,0.5131,-0.8283,9.3821,-0.6651,-0.3911,-0.4515
21.14,0.1675,-0.5085,9.1024,-1.0322,-0.3245,-0.5057
21.16,-0.4784,-0.7562,9.895,-0.9738,0.1093,-0.447
21.18,0.5983,-0.5001,12.5278,-0.3647,0.5692,-0.1775
21.2,1.3481,-0.4904,11.9535,0.3778,0.5528,0.2048
21.22,1.7851,-0.582,10.3158,0.9826,0.0603,0.4484
21.24,1.7002,-0.545,9.7476,0.9711,-0.3229,0.4881
21.26,1.0412,-0.5662,9.2858,0.6125,-0.3338,0.398
21.28,0.9516,-0.9391,9.4412,0.1387,-0.0769,0.2306
21.3,0.4922,-1.1354,9.2527,-0.2301,0.1441,0.0854
21.32,0.184,-0.8751,8.8414,-0.2925,0.1356,-0.0484
21.34,0.6377,-0.9186,9.7828,-0.1717,0.043,-0.0415
21.36,0.6692,-0.7872,9.73,-0.1158,-0.0293,-0.0798
21.38,0.8523,-0.7379,10.2183,-0.0363,0.001,0.0109
21.4,0.6653,-1.0537,9.8581,-0.0384,-0.0319,0.01
21.42,0.6797,-0.9222,9.8157,-0.0153,-0.0145,-0.0237
21.44,0.6165,-0.974,9.6494,-0.0057,-0.0533,-0.0468
21.46,0.7107,-0.6214,9.8379,0.0651,0.0197,-0.0537
21.48,0.8272,-0.5759,10.2033,0.1971,0.0913,-0.056
21.5,1.0523,-0.7744,9.4028,0.1955,0.148,0.0081
21.52,0.5705,-0.8378,9.5469,0.0531,0.0732,0.0627
21.54,0.7246,-0.5822,9.4721,-0.2089,-0.1155,0.2458
21.56,0.2127,-0.9821,8.9747,-0.5961,-0.3545,0.3675
21.58,0.082,-0.9299,9.5038,-0.7612,-0.1857,0.3642
21.6,0.2236,-0.8064,11.2013,-0.5792,0.2211,0.2512
21.62,0.2138,-1.054,11.419,-0.0983,0.4598,0.0205
21.64,1.4759,-1.0446,11.2853,0.4654,0.3096,-0.2313
21.66,1.4985,-1.1117,9.4036,0.7525,-0.1016,-0.3528
21.68,0.9827,-0.8629,9.165,0.6911,-0.3125,-0.3348
21.7,0.7953,-1.0261,9.0894,0.3499,-0.2413,-0.2734
21.72,0.3942,-0.9108,8.7696,-0.0656,0.0115,-0.1721
21.74,0.7084,-0.6269,9.3692,-0.1674,0.1208,0.0167
21.76,0.3485,-1.1046,9.4336,-0.1812,0.1198,0.0548
21.78,0.5944,-1.133,9.7639,-0.1536,0.0328,0.0249
21.8,0.3552,-0.8576,9.7854,-0.0296,-0.0189,0.0261
21.82,0.7085,-0.8203,9.7702,-0.0085,-0.0172,0.0136
21.84,0.8976,-0.7332,9.9353,-0.0066,0.0223,0.0067
21.86,0.8672,-0.9099,9.6033,-0.0326,0.0297,0.0209
21.88,0.5856,-0.9268,9.556,-0.0055,-0.0489,0.0406
21.9,0.6708,-0.9243,9.8579,0.04,-0.0381,0.0601
21.92,0.9964,-0.934,9.8494,0.1454,0.035,0.0881
21.94,1.0009,-0.8373,9.2774,0.2796,0.0918,0.0703
21.96,0.8002,-0.8029,9.4168,0.312,0.1928,-0.0066
21.98,0.9038,-1.1485,8.8048,0.0698,0.0725,-0.1439
22.0,0.6977,-1.0243,8.9769,-0.3613,-0.2206,-0.3131
22.02,0.089,-0.9209,9.0139,-0.7931,-0.4422,-0.4966
22.04,-0.217,-0.9105,8.8182,-1.0797,-0.2449,-0.5088
22.06,-0.3365,-0.479,11.216,-0.8144,0.293,-0.3602
22.08,0.4921,-0.6195,12.4968,-0.0602,0.6398,-0.0503
22.1,1.7803,-0.5961,11.6928,0.6759,0.4174,0.2809
22.12,1.9319,-0.5977,9.506,1.0458,-0.1464,0.5141
22.14,1.1356,-1.0493,8.6049,0.905,-0.4967,0.486
22.16,0.7318,-0.9883,8.8208,0.3993,-0.3154,0.3585
22.18,0.7071,-0.9938,9.0698,-0.0217,0.0586,0.1634
22.2,0.4218,-1.2275,9.2099,-0.3299,0.1615,0.0114
22.22,0.5048,-0.9474,9.4283,-0.2975,0.1369,-0.0682
22.24,0.7771,-0.8318,9.7803,-0.1594,0.038,-0.059
22.26,0.7255,-0.9567,9.7311,-0.0709,-0.0121,-0.0457
22.28,0.722,-0.9131,9.9758,-0.0183,-0.0115,-0.0437
22.3,0.958,-0.7262,10.0365,0.0224,0.0274,-0.0263
22.32,0.7323,-0.8567,10.109,0.0121,-0.0469,-0.0097
22.34,0.8034,-0.8632,10.0718,0.0801,-0.0048,-0.0238
22.36,1.1064,-0.9152,9.7693,0.1265,0.0278,-0.0754
22.38,1.0288,-0.6488,9.6626,0.235,0.1001,-0.0374
22.4,0.6475,-0.9203,9.288,0.2237,0.1899,-0.0011
22.42,0.7181,-0.8098,9.1574,0.0205,0.0214,0.1672
22.44,0.7879,-0.5733,9.1611,-0.4123,-0.2753,0.3403
22.46,0.0487,-0.7294,9.0695,-0.8971,-0.4065,0.4779
22.48,-0.3935,-1.2612,9.7892,-0.9859,-0.139,0.4561
22.5,-0.0198,-1.2143,11.6655,-0.6617,0.3782,0.2795
22.52,0.8832,-1.2222,12.5495,0.0537,0.5645,-0.0781
22.54,1.6323,-1.3533,10.6583,0.695,0.2722,-0.2961
22.56,1.9912,-0.9458,9.6939,1.0532,-0.2218,-0.4538
22.58,1.1197,-0.8567,8.9334,0.7054,-0.4441,-0.4605
22.6,0.6255,-0.9717,8.9443,0.2646,-0.2435,-0.3012
22.62,0.5729,-0.791,9.0766,-0.104,0.0621,-0.1264
22.64,0.8156,-0.746,9.951,-0.2615,0.2017,0.0363
22.66,0.352,-0.7952,9.3609,-0.2492,0.0579,0.0587
22.68,0.5637,-0.9259,9.6642,-0.11,0.0038,0.0443
22.7,0.4119,-1.0136,9.9815,-0.0684,-0.04,0.0103
22.72,0.7057,-0.7213,9.937,-0.0042,-0.0205,-0.001
22.74,0.6651,-1.0358,9.7557,-0.0285,-0.0606,0.0085
22.76,0.6482,-1.0108,9.8282,-0.0122,-0.0582,0.0444
22.78,0.7519,-0.8836,9.7727,0.089,-0.0017,0.0436
22.8,0.9189,-0.9299,9.5448,0.1804,0.0815,0.057
22.82,1.1901,-0.8674,9.871,0.3262,0.1872,0.0516
22.84,0.7275,-1.0875,9.0127,0.1374,0.1607,-0.1175
22.86,0.6231,-0.7124,9.2055,-0.221,-0.1296,-0.2496
22.88,0.1418,-1.0886,8.9787,-0.7224,-0.4617,-0.4055
22.9,-0.2596,-0.665,8.8761,-1.0477,-0.3512,-0.5081
22.92,-0.2119,-0.3908,10.8105,-0.939,0.1169,-0.4416
22.94,-0.1638,-0.5465,12.4427,-0.3,0.6063,-0.0864
22.96,1.4325,-0.4335,12.7207,0.4809,0.512,0.2118
22.98,1.7318,-0.6929,9.7367,0.9757,-0.0002,0.4292
23.0,1.2654,-0.9909,8.794,0.9854,-0.4265,0.5333
23.02,0.8917,-1.1117,8.7504,0.5776,-0.3752,0.4188
23.04,0.5319,-0.9801,9.0592,0.124,-0.0611,0.2218
23.06,0.5714,-1.0927,8.8423,-0.2532,0.1469,0.0532
23.08,0.4103,-1.2291,9.4257,-0.3008,0.1318,-0.076
23.1,0.5674,-0.8872,9.5222,-0.174,0.0267,-0.0542
23.12,0.2717,-0.9418,9.852,-0.0465,-0.0099,-0.0291
23.14,0.5278,-0.8529,10.0868,-0.0287,-0.0388,-0.0261
23.16,0.654,-1.0646,9.6899,-0.0566,-0.0007,-0.0536
23.18,0.8265,-0.834,10.0769,0.0074,0.0314,0.0449
23.2,0.7644,-0.868,9.7148,-0.0158,-0.0037,-0.0396
23.22,0.9339,-0.9185,9.6008,0.0211,-0.032,-0.0318
23.24,0.9501,-0.6335,9.6264,0.1662,0.0568,-0.0548
23.26,0.7683,-0.8772,9.1573,0.2514,0.1423,-0.061
23.28,0.6548,-0.8112,9.0388,0.1788,0.1403,0.0489
23.3,0.6723,-0.85,9.0803,-0.081,-0.0225,0.2012
23.32,0.3214,-0.9518,8.479,-0.5197,-0.3785,0.3672
23.34,0.2004,-1.0553,8.9649,-0.8944,-0.3742,0.4901
23.36,-0.3779,-0.9268,9.9662,-0.9537,-0.0546,0.4058
23.38,0.0689,-1.106,11.9989,-0.5386,0.4441,0.1766
23.4,0.7272,-1.3332,11.6419,0.2441,0.5733,-0.0862
23.42,2.0133,-0.9447,11.2109,0.8236,0.2088,-0.3192
23.44,1.4988,-1.2442,8.972,0.9522,-0.2966,-0.4914
23.46,1.1802,-0.948,8.8767,0.6301,-0.4142,-0.4358
23.48,0.5275,-0.7374,8.9653,0.2018,-0.1476,-0.3065
23.5,0.6616,-0.498,9.2734,-0.1672,0.0996,-0.0895
23.52,0.6281,-0.8364,9.175,-0.2875,0.1669,-0.0263
23.54,0.6248,-0.8358,9.4335,-0.2479,0.0478,0.0462
23.56,0.5246,-1.0334,10.0943,-0.1329,0.0079,0.0498
23.58,0.5671,-0.5649,9.7178,-0.0354,-0.0216,0.0052
23.6,1.0158,-0.724,9.8631,-0.0139,-0.0055,0.0301
23.62,0.6253,-0.7953,10.0005,0.0181,0.018,-0.0055
23.64,0.8591,-0.9022,9.9697,-0.0243,0.0211,-0.0029
23.66,0.6265,-1.0566,9.7757,-0.0337,-0.0106,0.0073
23.68,1.1197,-0.6942,9.9992,0.0093,0.0182,0.0197
23.7,0.7442,-0.8782,10.0954,0.0455,-0.0396,0.0273
23.72,0.8319,-0.7739,9.7753,0.1819,0.0333,0.0693
23.74,1.0313,-0.7566,9.8281,0.2576,0.13,0.078
23.76,0.8527,-0.9381,9.4216,0.2418,0.1955,-0.0222
23.78,0.8248,-0.7319,9.0903,-0.0266,-0.0031,-0.1959
23.8,0.3283,-1.1419,8.7916,-0.5705,-0.3528,-0.3988
23.82,0.1359,-0.7527,9.1795,-0.9589,-0.4271,-0.4939
23.84,-0.6159,-0.5368,9.9489,-1.0096,-0.0542,-0.4691
23.86,-0.0288,-0.3858,12.216,-0.5549,0.4863,-0.2094
23.88,1.2767,-0.3143,13.2797,0.1882,0.6013,0.0813
23.9,1.7231,-0.7824,10.551,0.844,0.1958,0.3549
23.92,1.8867,-0.5929,9.2983,1.0464,-0.2834,0.4924
23.94,0.9878,-0.8184,8.848,0.7203,-0.4719,0.4616
23.96,1.0731,-1.0299,9.0915,0.2419,-0.1733,0.2964
23.98,0.9112,-0.8574,9.2206,-0.1472,0.1292,0.1139
24.0,0.7566,-0.9568,9.2236,-0.3051,0.1701,-0.0499
24.02,0.3684,-0.9538,9.5431,-0.2236,0.0786,-0.0653
24.04,0.9325,-0.871,10.1112,-0.0968,0.024,-0.0437
24.06,1.1194,-0.5901,10.0804,-0.0188,0.0044,-0.0233
24.08,0.7701,-0.8387,9.6872,-0.0246,-0.039,-0.0033
24.1,0.7025,-0.6507,9.9206,-0.0161,0.0204,-0.0125
24.12,0.9329,-0.7828,10.028,0.0499,0.0161,0.0032
24.14,0.7922,-0.8754,9.9784,-0.0212,0.0087,-0.0308
24.16,0.7062,-1.1344,9.874,0.0195,-0.0553,-0.069
24.18,0.9512,-0.6572,9.9683,0.176,0.0667,-0.0732
24.2,0.8263,-0.7458,9.5072,0.2373,0.1451,-0.0315
24.22,1.1745,-0.5036,9.5861,0.285,0.2212,-0.0035
24.24,0.9237,-0.3248,9.3007,-0.0004,0.0239,0.1641
24.26,0.8244,-0.9377,9.0574,-0.4284,-0.2758,0.3568
24.28,0.0605,-0.7216,8.8666,-0.9107,-0.4446,0.4946
24.3,-0.4227,-0.8614,9.2415,-1.0595,-0.1306,0.4819
24.32,0.0382,-1.1395,11.7666,-0.674,0.4118,0.2953
24.34,0.9193,-1.3857,12.8994,0.0616,0.6239,-0.0268
24.36,1.6552,-1.1602,10.8068,0.7525,0.2779,-0.3104
24.38,1.7762,-1.158,9.2,1.0303,-0.2163,-0.5043
24.4,0.938,-0.8693,8.2914,0.7676,-0.495,-0.49
24.42,0.8864,-1.0826,8.7498,0.316,-0.2241,-0.3292
24.44,0.6635,-0.8847,9.1768,-0.0891,0.115,-0.0991
24.46,0.2596,-0.8857,9.0082,-0.3064,0.1612,0.0029
24.48,0.1589,-0.8628,9.5352,-0.2422,0.0585,0.0614
24.5,0.609,-1.045,9.6862,-0.1231,0.0156,0.0943
24.52,0.5536,-1.169,9.9101,-0.0195,-0.0446,0.0477
24.54,0.4329,-1.1717,9.4785,-0.0321,-0.0312,0.0131
24.56,0.8275,-0.879,9.7444,0.0071,0.0239,-0.0062
24.58,0.713,-0.8283,9.6967,0.0135,-0.0259,-0.0102
24.6,0.8491,-0.9488,9.6181,-0.0121,-0.0015,0.0059
24.62,0.5149,-1.3507,9.4191,0.013,-0.0402,0.0358
24.64,0.9092,-0.825,9.7749,0.1032,0.0192,0.0787
24.66,0.8823,-0.874,9.6166,0.2466,0.1132,0.0401
24.68,0.634,-0.9545,9.196,0.1897,0.1571,-0.0168
24.7,0.6319,-0.9592,9.1174,0.0019,0.0275,-0.1136
24.72,0.621,-0.9316,9.1445,-0.3431,-0.2009,-0.306
24.74,0.3702,-0.7896,9.0017,-0.7197,-0.369,-0.4149
24.76,-0.1917,-0.508,9.5087,-0.8254,-0.1109,-0.3842
24.78,0.3143,-0.5845,11.8423,-0.5501,0.3497,-0.2309
24.8,0.8838,-0.5943,12.0897,0.043,0.5873,0.0472
24.82,1.7285,-0.868,11.0761,0.63,0.2747,0.2818
24.84,2.0706,-0.7514,9.5628,0.8513,-0.161,0.4154
24.86,1.0322,-1.1658,8.922,0.6515,-0.352,0.387
24.88,1.0201,-0.7979,9.3202,0.2991,-0.2014,0.2895
24.9,0.7989,-1.226,9.1728,-0.0963,0.0737,0.1193
24.92,0.5533,-1.0768,9.4051,-0.2455,0.1303,-0.0093
24.94,0.5728,-1.0779,9.3974,-0.2823,0.0751,-0.0444
24.96,0.667,-0.9298,9.8275,-0.1403,0.0357,-0.0491
24.98,0.5003,-1.0648,9.7436,-0.065,-0.0536,-0.0387
25.0,0.749,-0.6642,9.8328,-0.0422,-0.007,-0.0395
25.02,0.4824,-0.8262,9.7217,-0.0116,-0.0225,-0.0314
25.04,0.9368,-0.858,10.1713,-0.0254,0.0268,-0.0446
25.06,0.9094,-0.7817,9.9979,0.0652,0.0278,-0.0541
25.08,1.1344,-0.8537,9.8083,0.1643,0.0489,-0.0503
25.1,1.1196,-0.7969,9.531,0.2507,0.1818,-0.016
25.12,0.7436,-0.8286,9.3417,0.176,0.121,0.0622
25.14,0.7692,-0.7148,9.0369,-0.1074,-0.047,0.1988
25.16,0.5754,-0.9039,9.2122,-0.498,-0.3657,0.3738
25.18,-0.0551,-0.8096,8.9992,-0.9458,-0.336,0.4914
25.2,-0.0516,-0.8792,10.4713,-0.9023,0.0478,0.4097
25.22,0.0143,-1.4928,11.9164,-0.3859,0.5374,0.1947
25.24,1.7969,-0.9173,13.3998,0.3537,0.5865,-0.0838
25.26,1.887,-1.1635,10.208,0.8515,0.15,-0.3759
25.28,1.758,-0.8012,9.0794,0.9362,-0.3434,-0.5048
25.3,1.2932,-0.6834,9.0874,0.6459,-0.3009,-0.4172
25.32,0.9861,-0.9572,9.1358,0.153,-0.0867,-0.2417
25.34,0.627,-1.0047,9.1794,-0.1686,0.1108,-0.078
25.36,0.6147,-0.7196,9.3902,-0.2622,0.1929,0.0126
25.38,0.5329,-0.8566,9.7927,-0.1768,0.09,0.0321
25.4,0.2548,-1.0352,9.7285,-0.0932,-0.0393,0.0493
25.42,0.8272,-0.9174,10.0453,-0.0123,-0.0262,-0.0044
25.44,0.7831,-1.1758,9.9199,0.0255,-0.0105,0.0247
25.46,0.8224,-0.8066,10.1221,-0.0003,-0.0141,0.0583
25.48,0.8473,-0.8082,9.8713,0.0172,-0.0144,0.0489
25.5,0.9333,-0.6267,9.7963,0.1824,0.0456,0.0843
25.52,1.283,-1.1676,9.5717,0.2397,0.1144,0.0534
25.54,0.6127,-1.0158,9.3172,0.1828,0.1232,-0.0496
25.56,0.8174,-1.1798,9.1627,-0.0955,-0.0782,-0.2277
25.58,0.5251,-1.0744,9.1565,-0.5043,-0.2858,-0.3056
25.6,0.1229,-0.9763,9.2701,-0.8088,-0.2548,-0.3935
25.62,-0.0805,-0.7505,10.2565,-0.7811,0.0427,-0.3572
25.64,0.1666,-0.286,11.6751,-0.3846,0.4303,-0.1361
25.66,1.0869,-0.3121,12.0679,0.2599,0.4118,0.1068
25.68,1.7644,-0.7791,10.0306,0.7419,0.1042,0.3367
25.7,1.5802,-0.7312,9.3717,0.8578,-0.2073,0.4319
25.72,1.2951,-0.9398,9.0743,0.5618,-0.3472,0.3464
25.74,0.7026,-1.0241,9.2293,0.1161,-0.1028,0.2246
25.76,0.8396,-0.6798,9.4968,-0.1533,0.1247,0.0822
25.78,0.7673,-1.0991,9.7805,-0.2144,0.2094,-0.0278
25.8,0.5899,-0.878,9.641,-0.1773,0.0679,-0.084
25.82,0.5423,-1.0541,9.7564,-0.0862,-0.0283,-0.0335
25.84,1.0178,-1.0661,9.833,-0.04,-0.0052,-0.0088
25.86,0.9004,-1.0834,9.4938,-0.063,-0.0077,-0.0569
25.88,0.6788,-0.6488,9.664,-0.0118,0.0085,-0.0304
25.9,0.6639,-1.0971,9.7297,0.029,-0.0377,-0.0157
25.92,0.8985,-1.0877,9.739,0.121,0.0088,-0.0986
25.94,1.0821,-0.9711,9.4783,0.2426,0.1104,-0.0574
25.96,0.8618,-0.7309,9.4834,0.2788,0.224,0.0062
25.98,0.8317,-1.1102,8.9075,0.0456,0.098,0.1231
26.0,0.8288,-0.6742,9.1449,-0.2798,-0.1598,0.3188
26.02,0.1569,-0.8441,8.7446,-0.7771,-0.4178,0.4797
26.04,-0.4821,-1.2254,9.1271,-1.0502,-0.2319,0.5054
26.06,0.1657,-0.691,11.7825,-0.7873,0.3059,0.3553
26.08,0.1531,-1.3745,12.4464,-0.1161,0.625,-0.0011
26.1,1.5984,-1.3685,12.1314,0.6101,0.3832,-0.3057
26.12,1.6161,-1.2638,9.6468,1.0105,-0.0895,-0.4887
26.14,1.4619,-0.8377,8.9369,0.9058,-0.4329,-0.4715
26.16,0.8279,-0.822,8.8677,0.3914,-0.312,-0.4017
26.18,0.7006,-0.8274,9.235,0.0024,0.0321,-0.1558
26.2,0.498,-0.9323,9.051,-0.2893,0.1725,-0.0403
26.22,0.6303,-0.7204,9.5061,-0.276,0.1216,0.0852
26.24,0.7325,-1.009,9.6623,-0.1623,0.0058,0.0353
26.26,0.5487,-0.7638,9.6201,-0.036,-0.0276,0.023
26.28,0.743,-1.0736,9.9331,-0.0217,-0.0512,0.0515
26.3,1.1211,-0.7517,10.0198,0.0257,-0.0121,0.0343
26.32,0.798,-1.0891,9.7658,0.0028,0.0075,-0.0139
26.34,0.6749,-0.8747,10.0939,0.0367,-0.0008,0.0016
26.36,0.7935,-1.1275,9.7992,0.0245,-0.0241,0.0135
26.38,1.011,-0.7067,10.1523,0.0667,-0.0252,0.014
26.4,0.8866,-0.9567,9.9982,0.1833,0.0486,0.0877
26.42,0.9194,-0.9196,9.4531,0.2118,0.1191,-0.0054
26.44,0.8561,-1.1479,9.3415,0.2112,0.1587,-0.0232
26.46,0.7529,-0.8169,9.5156,-0.0161,-0.0213,-0.1782
26.48,0.8973,-0.7049,9.1387,-0.4707,-0.2767,-0.335
26.5,0.352,-0.5642,9.5706,-0.8043,-0.3864,-0.4558
26.52,-0.5384,-0.9339,9.8374,-0.9541,-0.0863,-0.4327
26.54,-0.1702,-0.6116,11.298,-0.6097,0.4004,-0.2572
26.56,1.2619,-0.3454,13.2285,0.1587,0.5621,0.0469
26.58,1.5419,-0.717,10.4408,0.7689,0.2339,0.3316
26.6,1.9364,-0.6433,9.4603,0.9657,-0.2178,0.4499
26.62,1.1995,-0.8845,8.8019,0.656,-0.4285,0.4295
26.64,0.8441,-1.0619,9.1336,0.2368,-0.1741,0.2977
26.66,0.8735,-1.1675,8.9881,-0.1531,0.0602,0.0941
26.68,0.5482,-0.8284,9.2847,-0.3051,0.1712,-0.0054
26.7,0.5684,-0.6845,9.7693,-0.2502,0.0889,-0.061
26.72,0.567,-0.988,9.8936,-0.156,-0.0153,-0.0936
26.74,0.9777,-0.9844,9.8932,-0.0139,-0.0288,-0.0155
26.76,0.598,-0.8688,9.9409,0.0014,-0.0101,0.0008
26.78,0.8325,-0.9923,9.6155,-0.006,-0.0159,-0.0082
26.8,1.1018,-0.925,10.2365,-0.0222,0.0227,-0.0094
26.82,0.8407,-1.1235,9.8153,-0.0176,0.0018,-0.0177
26.84,0.6566,-0.7956,9.7113,0.0098,-0.0603,-0.0194
26.86,1.0944,-1.0469,9.7182,0.086,-0.0201,-0.0545
26.88,1.045,-0.7804,9.5205,0.1985,0.0806,-0.0696
26.9,0.9166,-0.9632,9.2464,0.1988,0.1632,-0.0249
26.92,0.5568,-0.6552,9.2218,0.0209,0.0529,0.1464
26.94,0.465,-1.0603,8.8624,-0.3617,-0.2308,0.3157
26.96,0.3629,-1.1024,9.0021,-0.7628,-0.3739,0.4576
26.98,-0.5265,-1.302,9.3034,-1.0078,-0.1995,0.4683
27.0,-0.0599,-1.2605,11.4252,-0.6027,0.3428,0.309
27.02,0.9396,-1.2022,12.8993,0.0264,0.5394,0.0093
27.04,1.2943,-1.5,10.9232,0.6421,0.3168,-0.2764
27.06,1.8775,-1.0557,9.1051,0.9103,-0.2276,-0.4537
27.08,1.2153,-0.9969,8.9507,0.7592,-0.3611,-0.4505
27.1,0.804,-0.8983,8.8655,0.307,-0.2174,-0.3319
27.12,0.6713,-0.8217,8.9568,-0.1193,0.0387,-0.1211
27.14,0.5459,-0.836,9.3371,-0.2788,0.1588,-0.0089
27.16,0.6131,-0.7129,9.6847,-0.1957,0.1517,0.0805
27.18,0.6449,-0.8089,9.6625,-0.1073,0.0002,0.0582
27.2,0.6908,-0.9565,9.9017,-0.0861,-0.0302,0.0273
27.22,0.6908,-0.8691,9.8023,0.0258,0.0003,0.0242
27.24,0.7818,-0.5996,9.9119,0.016,0.0182,0.0098
27.26,0.675,-1.0015,9.7337,-0.0504,-0.0063,0.0305
27.28,0.6015,-1.0132,9.5913,0.0418,-0.0125,0.0394
27.3,1.0398,-1.0816,9.7328,0.1862,0.046,0.1115
27.32,1.0671,-0.8144,9.5946,0.2662,0.1816,0.1218
27.34,0.8513,-0.98,9.114,0.2367,0.1778,-0.0232
27.36,0.6763,-1.2384,8.7602,0.0594,0.0637,-0.1788
27.38,0.7927,-1.0997,8.8184,-0.4451,-0.3079,-0.3767
27.4,0.0359,-0.6679,9.1006,-0.9468,-0.476,-0.5377
27.42,-0.5817,-0.9186,9.1426,-1.1831,-0.2166,-0.5556
27.44,-0.8297,-0.8585,11.3512,-0.8343,0.402,-0.349
27.46,0.8137,-0.6362,12.9072,0.0147,0.6654,-0.0127
27.48,2.2534,-0.2873,11.9835,0.8489,0.3452,0.3569
27.5,2.0509,-0.8691,9.7367,1.1812,-0.2381,0.6094
27.52,1.4186,-0.6008,9.094,0.9772,-0.4514,0.592
27.54,0.8744,-1.1404,8.7904,0.378,-0.2886,0.3564
27.56,0.5055,-0.9625,9.293,-0.0712,0.0859,0.1854
27.58,0.7692,-1.2112,9.165,-0.2991,0.1952,0.0093
27.6,0.8593,-1.0695,9.4467,-0.2665,0.1432,-0.0215
27.62,0.5232,-1.0322,9.6569,-0.1798,0.0158,-0.092
27.64,0.6907,-0.9487,9.8553,-0.0384,0.0099,-0.0415
27.66,0.7346,-1.0426,9.7429,0.0025,-0.0515,-0.034
27.68,0.575,-1.1292,9.7335,0.0048,0.0068,-0.0445
27.7,0.728,-0.9203,9.8502,0.0318,0.0196,0.0125
27.72,0.5224,-0.8926,9.7843,-0.0404,-0.0021,-0.0223
27.74,0.7306,-1.2896,9.9888,-0.0287,0.012,-0.0461
27.76,0.7232,-0.9245,9.8784,0.0909,-0.0252,-0.0712
27.78,0.866,-0.7527,9.8953,0.1679,0.0723,-0.0822
27.8,0.9814,-0.6526,9.5823,0.2208,0.1783,-0.0209
27.82,1.045,-0.6796,9.0755,0.1064,0.1475,0.055
27.84,0.7792,-0.7919,9.4831,-0.1088,-0.0837,0.2528
27.86,0.5831,-1.0181,8.8043,-0.6416,-0.3495,0.3659
27.88,0.1042,-0.8842,9.2986,-0.9477,-0.3201,0.4696
27.9,-0.3213,-1.4073,10.3776,-0.8904,0.0865,0.3914
27.92,0.3777,-1.2208,12.4419,-0.3641,0.5245,0.1331
27.94,1.231,-1.397,11.8804,0.3481,0.4917,-0.1717
27.96,1.7844,-1.3509,10.3705,0.8356,0.0219,-0.4138
27.98,1.7805,-0.7311,9.192,0.9121,-0.3714,-0.452
28.0,0.9029,-0.8465,8.9784,0.5344,-0.3613,-0.3738
28.02,0.8645,-1.0626,9.2063,0.1246,-0.0455,-0.218
28.04,0.6272,-0.8555,9.2118,-0.2273,0.1426,-0.0673
28.06,0.786,-0.7911,9.5159,-0.2175,0.1559,0.0368
28.08,0.7534,-0.7385,9.8451,-0.1644,0.0487,0.0692
28.1,0.5531,-0.8356,10.0009,-0.1071,-0.0264,0.0318
28.12,0.9035,-0.8328,10.1931,0.0103,0.0036,0.0455
28.14,0.8045,-1.0157,9.8988,-0.0143,0.0123,0.0262
28.16,1.0731,-1.0296,9.7702,0.0045,0.0014,0.0191
28.18,0.7346,-0.9271,9.8718,0.05,-0.0092,0.0088
28.2,0.8674,-1.0151,10.2375,0.1093,-0.037,0.0702
28.22,0.9221,-1.0549,9.6715,0.1824,0.0497,0.0687
28.24,1.2877,-0.842,9.4803,0.2726,0.2107,0.0218
28.26,0.768,-0.8829,9.3029,0.1579,0.1229,-0.071
28.28,0.5301,-1.1283,9.0524,-0.1962,-0.1574,-0.2882
28.3,0.297,-0.8779,8.8036,-0.7657,-0.4271,-0.4853
28.32,-0.2986,-1.0721,8.9848,-1.0469,-0.3353,-0.4994
28.34,-0.0847,-0.6323,11.3718,-0.8953,0.1423,-0.405
28.36,0.1433,-0.9918,12.5981,-0.2702,0.6261,-0.1187
28.38,1.5566,-0.3363,12.4636,0.549,0.5266,0.238
28.4,1.8741,-0.7457,9.5522,0.9637,-0.0692,0.4728
28.42,1.2741,-0.8972,8.984,1.02,-0.426,0.5281
28.44,0.89,-1.2072,8.7208,0.5439,-0.4143,0.4012
28.46,0.734,-1.414,9.0769,0.0327,-0.0762,0.2148
28.48,0.6607,-1.1452,9.155,-0.264,0.1946,0.0731
28.5,0.3574,-1.0353,9.2924,-0.3675,0.1525,-0.0524
28.52,0.2188,-0.8308,9.6867,-0.159,0.0476,-0.0868
28.54,0.623,-1.0564,9.883,-0.0497,-0.0226,-0.0486
28.56,0.9271,-1.0211,9.9603,-0.0775,-0.0059,-0.0168
28.58,0.9451,-1.0918,9.5489,-0.015,-0.0163,0.0009
28.6,0.6497,-0.9422,9.5262,-0.0545,-0.0496,0.0001
28.62,0.8755,-1.1216,10.0042,0.0447,-0.0234,-0.0412
28.64,0.8308,-0.8362,9.5433,0.1321,0.0432,-0.0795
28.66,0.9907,-0.7415,9.6101,0.2459,0.1102,-0.061
28.68,0.8918,-0.964,9.257,0.2045,0.1934,0.0214
28.7,0.6415,-0.9265,8.7983,-0.0245,0.0042,0.1453
28.72,0.5526,-0.9296,8.9824,-0.3861,-0.2831,0.3559
28.74,0.2901,-1.0304,9.2001,-0.847,-0.3993,0.4834
28.76,-0.4794,-1.1549,9.4962,-1.0271,-0.1931,0.4621
28.78,-0.0441,-1.1842,11.4924,-0.6426,0.3775,0.2719
28.8,0.9539,-1.1306,12.8321,0.0525,0.6044,0.0049
28.82,1.5557,-1.4451,10.601,0.7184,0.2592,-0.2876
28.84,2.1036,-1.0629,9.4705,0.9866,-0.2265,-0.4672
28.86,1.1131,-0.8945,8.6459,0.7647,-0.4607,-0.4368
28.88,0.9524,-0.4741,9.1117,0.3256,-0.2264,-0.2426
28.9,0.8561,-0.8396,9.0651,-0.0965,0.0124,-0.1644
28.92,0.2442,-0.9177,8.9959,-0.2822,0.1722,-0.0269
28.94,0.59,-1.0895,9.7081,-0.2405,0.1698,0.0752
28.96,0.7054,-0.8252,9.7449,-0.1209,-0.0259,0.0741
28.98,1.074,-0.995,10.2604,-0.01,-0.0322,0.0649
29.0,0.5496,-1.0186,9.5785,-0.0348,-0.0137,0.0137
29.02,0.5101,-1.0836,9.6573,-0.0279,-0.0203,-0.0317
29.04,0.9107,-1.0489,9.7732,-0.0159,-0.0014,0.0123
29.06,0.9367,-0.9849,9.9683,-0.0053,0.0129,0.0293
29.08,0.7245,-0.9417,9.9602,0.0171,-0.0009,0.016
29.1,0.5664,-0.8581,10.0748,0.0532,-0.0283,0.0461
29.12,0.7347,-1.1037,9.9245,0.1742,0.0636,0.034
29.14,0.9689,-1.2462,9.3975,0.2289,0.1339,0.018
29.16,0.668,-1.0168,9.1588,0.2116,0.1722,-0.0549
29.18,0.9793,-1.1151,9.2928,-0.0722,-0.067,-0.1907
29.2,0.9127,-0.8615,9.3359,-0.5225,-0.3353,-0.3741
29.22,0.2661,-0.8047,9.2672,-0.8997,-0.375,-0.4872
29.24,-0.5153,-0.6831,10.0856,-0.941,0.0309,-0.4266
29.26,0.4196,-1.0146,11.9085,-0.4653,0.4617,-0.2031
29.28,1.2865,-0.8247,12.1305,0.2336,0.5327,0.1206
29.3,2.0788,-0.5814,10.9572,0.8354,0.1475,0.374
29.32,1.6243,-0.9382,9.1968,0.9462,-0.346,0.455
29.34,1.1856,-1.1317,8.9704,0.6539,-0.3825,0.424
29.36,0.7109,-0.7948,9.4778,0.1783,-0.137,0.2708
29.38,0.9287,-1.2077,9.5885,-0.1272,0.1422,0.1021
29.4,1.0122,-0.9123,9.588,-0.2615,0.1586,-0.0215
29.42,0.7155,-0.8559,9.7912,-0.2015,0.0426,-0.1081
29.44,0.7269,-1.0181,9.7135,-0.1196,-0.0406,-0.0788
29.46,0.9407,-1.0229,9.9716,-0.0296,-0.0552,-0.0545
29.48,0.7603,-0.7633,9.6939,-0.0143,-0.0175,-0.0432
29.5,0.8094,-0.8595,9.9715,0.0003,0.0077,0.0233
29.52,0.7083,-0.9955,9.8557,-0.0215,-0.0151,-0.0078
29.54,0.8432,-0.8974,10.0964,0.0311,0.0016,-0.0439
29.56,0.9968,-0.8836,9.9918,0.1403,0.0593,-0.031
29.58,1.0089,-0.8623,9.6365,0.2538,0.1343,-0.1012
29.6,0.8734,-0.6979,9.6402,0.2701,0.2006,-0.0041
29.62,0.9448,-0.7082,9.3372,0.0757,0.0336,0.1232
29.64,0.7438,-0.8166,8.9266,-0.3857,-0.2145,0.2989
29.66,0.0888,-1.0474,8.7701,-0.8306,-0.4145,0.4556
29.68,-0.115,-0.9241,9.6218,-0.9258,-0.1581,0.4428
29.7,0.1177,-0.9203,11.7822,-0.5985,0.3453,0.2808
29.72,0.5915,-1.353,11.8565,0.0464,0.5461,0.0029
29.74,1.6885,-1.18,11.1334,0.6731,0.2701,-0.2951
29.76,1.9617,-1.2075,9.4608,0.9564,-0.1996,-0.4562
29.78,1.0594,-1.005,8.791,0.7202,-0.4244,-0.4481
29.8,0.7487,-1.1166,9.1234,0.3125,-0.2335,-0.2893
29.82,0.9154,-0.7228,9.2112,-0.0245,0.0767,-0.1132
29.84,0.7787,-0.6112,9.6426,-0.2269,0.2166,-0.0114
29.86,0.5274,-0.9982,9.3206,-0.2377,0.1018,0.0602
29.88,0.8009,-1.0291,9.7262,-0.1074,0.0285,0.0582
29.9,0.6593,-1.1338,9.7774,-0.0725,-0.0404,0.0389
29.92,0.5325,-0.9187,9.9032,0.0036,0.0124,0.0379
29.94,0.6167,-0.8015,9.9161,0.0148,0.0036,0.0502
29.96,0.7903,-1.2128,9.9674,0.0262,-0.0296,-0.006
29.98,1.3417,-0.9085,9.9084,0.1641,0.0583,0.099
30.0,0.9213,-1.3456,9.3622,0.2022,0.0692,0.0852
30.02,0.7765,-0.8584,9.353,0.2057,0.1445,0.0078
30.04,0.5137,-1.0867,9.0287,0.0298,0.0056,-0.1251
30.06,0.6178,-0.9442,8.8864,-0.3451,-0.2415,-0.2913
30.08,0.1844,-1.1415,8.7258,-0.8498,-0.3897,-0.458
30.1,-0.3144,-0.8066,9.5691,-0.9146,-0.166,-0.4176
30.12,-0.0543,-0.8153,11.2443,-0.6103,0.3085,-0.2917
30.14,0.5887,-0.6839,12.2036,0.087,0.5565,0.0284
30.16,1.871,-0.6685,11.5395,0.651,0.3148,0.3067
30.18,1.7117,-0.7581,9.6213,0.9077,-0.1806,0.4752
30.2,1.0506,-0.7945,8.8699,0.7114,-0.4118,0.4555
30.22,0.786,-1.0678,9.3638,0.3057,-0.2429,0.3156
30.24,0.9892,-1.1206,9.1372,-0.0361,0.0613,0.1241
30.26,0.4671,-1.0726,8.8682,-0.289,0.0802,-0.0386
30.28,0.566,-0.9042,9.6331,-0.247,0.1037,-0.0366
30.3,0.5659,-0.9774,10.1005,-0.1168,0.006,-0.04
30.32,0.7947,-1.0653,9.8754,-0.0404,-0.0444,-0.0501
30.34,0.5731,-0.9701,9.7625,0.0022,-0.0026,-0.0503
30.36,0.7175,-0.8754,9.8429,-0.0221,0.0336,-0.0509
30.38,0.8661,-0.6882,9.9184,0.0015,-0.0156,-0.0113
30.4,0.9044,-0.7945,9.9483,0.0447,-0.0039,-0.0258
30.42,0.7839,-0.7269,10.0634,0.0937,0.0001,-0.0524
30.44,1.2515,-0.9245,9.6571,0.1055,0.0877,-0.0393
30.46,1.0037,-0.8315,9.488,0.1913,0.1335,-0.0167
30.48,0.885,-0.767,9.3784,0.0324,0.0996,0.0493
30.5,0.7915,-0.9022,9.4348,-0.1525,-0.1339,0.2125
30.52,0.5976,-0.9796,8.845,-0.6066,-0.3624,0.3248
30.54,0.3799,-1.0399,9.5273,-0.7637,-0.2224,0.3917
30.56,0.2353,-1.0223,10.8091,-0.625,0.0909,0.2638
30.58,0.7559,-1.2473,12.0813,-0.1897,0.4596,0.0594
30.6,1.3093,-1.3801,11.448,0.3892,0.3503,-0.1591
30.62,1.6047,-0.8453,10.1673,0.7117,-0.03,-0.3329
30.64,1.262,-1.1178,9.1359,0.6576,-0.3261,-0.3859
30.66,1.1304,-1.0917,9.3819,0.4032,-0.2113,-0.2722
30.68,0.5883,-0.825,9.367,-0.0169,-0.0207,-0.1638
30.7,0.843,-0.7645,9.6102,-0.2006,0.134,-0.0224
30.72,0.658,-0.9674,9.6434,-0.2291,0.1041,0.0071
30.74,0.6766,-1.0834,10.0379,-0.097,0.0417,0.0555
30.76,0.7954,-0.8899,9.8372,-0.0373,-0.007,0.026
30.78,0.815,-0.8748,9.8605,-0.0344,-0.0334,-0.0057
30.8,1.025,-0.9433,9.9394,-0.0046,0.0039,0.0055
30.82,0.796,-0.6164,9.9274,0.0006,-0.0064,0.0258
30.84,0.787,-0.8894,9.9827,-0.0704,-0.0639,-0.0004
30.86,0.8559,-0.923,10.0349,0.0003,-0.0155,0.0443
30.88,0.9426,-0.9843,9.5909,0.2056,0.002,0.0697
30.9,0.8374,-1.0679,9.3779,0.3018,0.1187,0.0588
30.92,0.9559,-1.3169,9.2125,0.2379,0.1698,-0.0719
30.94,1.0154,-1.0171,9.1379,-0.0173,-0.0049,-0.1751
30.96,0.4206,-0.7711,8.9865,-0.4979,-0.3224,-0.4088
30.98,0.2332,-0.9927,8.9753,-0.9596,-0.4867,-0.5254
31.0,-0.3549,-1.0084,9.5181,-1.1251,-0.1472,-0.5512
31.02,-0.2036,-0.6224,11.8019,-0.6498,0.4343,-0.2903
31.04,0.7579,-0.8193,12.2662,0.1718,0.6322,0.1033
31.06,1.9989,-0.6421,10.8631,0.8754,0.2575,0.4021
31.08,1.5837,-0.7708,9.5667,1.0959,-0.2584,0.5246
31.1,1.44,-0.7307,9.389,0.7923,-0.4337,0.5005
31.12,0.6425,-1.5044,8.5188,0.223,-0.2172,0.3395
31.14,0.8805,-1.2634,9.3712,-0.1061,0.1518,0.1298
31.16,0.5149,-1.0392,9.3734,-0.3263,0.1875,-0.0366
31.18,0.8992,-0.8683,9.5599,-0.1872,0.0694,-0.0671
31.2,0.7038,-0.9802,9.9761,-0.1022,-0.0055,-0.0539
31.22,0.7578,-1.0261,9.7896,-0.043,-0.0348,-0.0459
31.24,0.7,-0.9087,9.641,0.03,-0.0439,-0.0126
31.26,0.6698,-0.8832,9.7133,-0.0284,0.0019,-0.039
31.28,0.898,-0.9868,9.5347,-0.0055,0.0304,-0.0057
31.3,0.7845,-0.8525,9.7496,0.0042,-0.0418,-0.038
31.32,0.8651,-0.6852,9.8332,0.0228,-0.0065,-0.0746
31.34,0.7306,-1.0283,9.4874,0.119,0.0021,-0.1052
31.36,0.6666,-1.073,9.4505,0.2596,0.1036,-0.0482
31.38,0.9618,-0.8343,9.2641,0.18,0.1417,0.0544
31.4,0.6561,-0.8801,9.2729,-0.048,-0.0416,0.2207
31.42,0.5038,-0.9123,9.0942,-0.484,-0.3259,0.3707
31.44,0.1585,-1.1038,9.0824,-0.8636,-0.3857,0.4437
31.46,-0.2891,-1.3324,9.944,-0.8606,0.0152,0.4204
31.48,0.3097,-1.2591,11.9806,-0.4594,0.4449,0.1949
31.5,0.8612,-1.565,11.5085,0.2015,0.5275,-0.0884
31.52,1.9042,-1.0184,10.8982,0.8007,0.1232,-0.3447
31.54,1.4017,-1.1101,9.2022,0.9155,-0.3216,-0.4593
31.56,0.8123,-0.965,8.8504,0.6066,-0.3835,-0.3973
31.58,0.8201,-0.914,9.3034,0.2295,-0.1252,-0.2005
31.6,0.9104,-0.9284,9.493,-0.1069,0.0761,-0.08
31.62,0.7913,-0.9509,9.5461,-0.2496,0.1639,0.0417
31.64,0.6057,-0.8247,9.6922,-0.2064,0.0772,0.0734
31.66,0.7871,-0.8167,9.9857,-0.0711,0.0095,0.0354
31.68,0.7827,-1.0267,9.7969,-0.0207,-0.0454,0.0118
31.7,0.6975,-0.9065,9.6892,-0.0541,-0.0368,0.0116
31.72,0.767,-0.9159,9.8486,0.0275,0.0368,-0.0014
31.74,0.4983,-0.911,9.8071,-0.0082,-0.0109,0.0083
31.76,0.6607,-0.8838,9.7357,-0.0421,-0.0495,0.0059
31.78,0.6055,-1.1626,9.7954,0.0888,-0.0217,0.0391
31.8,1.108,-0.8113,9.839,0.1888,0.061,0.0732
31.82,1.0483,-0.8537,9.1115,0.2064,0.1148,-0.0235
31.84,0.9205,-1.0581,9.3975,0.1374,0.1111,-0.086
31.86,0.844,-0.9486,8.7883,-0.1535,-0.1363,-0.2483
31.88,0.3947,-1.158,9.1161,-0.6299,-0.3759,-0.4237
31.9,0.3997,-1.024,9.483,-0.8964,-0.3139,-0.4496
31.92,0.0064,-0.6736,10.2674,-0.8658,0.1167,-0.3655
31.94,0.5765,-0.4437,12.6709,-0.3226,0.5107,-0.1802
31.96,1.0252,-0.6826,11.5633,0.402,0.4574,0.1633
31.98,2.1466,-0.3834,10.9643,0.8882,0.0745,0.4294
32.0,1.3175,-1.0545,9.1088,0.9108,-0.3513,0.4324
32.02,1.0935,-1.1818,9.3131,0.5566,-0.3459,0.3954
32.04,0.8691,-1.0422,9.1303,0.1195,-0.1345,0.2028
32.06,1.0813,-0.889,9.7133,-0.1528,0.151,0.0453
32.08,0.6119,-1.0945,9.6503,-0.2826,0.1604,-0.0441
32.1,0.629,-0.9102,9.7954,-0.1847,0.0382,-0.0663
32.12,0.792,-0.7853,9.9003,-0.0876,-0.0048,-0.091
32.14,0.4327,-1.0538,9.8754,-0.0311,-0.0338,-0.0071
32.16,0.7575,-1.165,9.7669,-0.0098,0.0108,-0.0081
32.18,0.809,-1.0264,9.8025,-0.0156,0.0022,-0.0275
32.2,0.6746,-0.7773,10.0768,0.0115,0.0054,-0.0393
32.22,0.8403,-1.0867,9.857,0.1149,-0.014,-0.083
32.24,1.1931,-1.0835,9.4744,0.2032,0.0443,-0.0817
32.26,0.9278,-1.0217,9.2457,0.2457,0.1096,-0.0373
32.28,0.9107,-0.6764,9.5124,0.1788,0.1013,0.0994
32.3,0.6543,-0.7891,9.2735,-0.2313,-0.1913,0.2699
32.32,0.351,-1.0162,8.8973,-0.7393,-0.4146,0.4242
32.34,0.3036,-1.111,9.2764,-1.0461,-0.3048,0.5078
32.36,-0.283,-1.3281,10.2168,-0.8577,0.1345,0.3969
32.38,0.4024,-1.4461,12.3833,-0.227,0.5467,0.1159
32.4,1.4217,-1.3477,11.8596,0.5114,0.4354,-0.2301
32.42,1.6002,-1.2993,9.5429,0.9747,-0.0887,-0.4215
32.44,1.3963,-0.8845,8.8798,1.0047,-0.4445,-0.509
32.46,1.0622,-0.8698,9.1004,0.5225,-0.3774,-0.4171
32.48,0.7635,-1.0877,9.066,0.0596,-0.0642,-0.2278
32.5,0.6872,-0.7313,9.3647,-0.2157,0.147,-0.0342
32.52,0.354,-1.0326,9.341,-0.2641,0.1219,0.0225
32.54,0.4771,-0.9421,9.6037,-0.1838,0.0337,0.0825
32.56,0.5005,-0.8632,9.7089,-0.0197,-0.0106,0.0435
32.58,0.7636,-0.9816,9.9158,0.0029,-0.0114,0.0229
32.6,0.7511,-0.8642,9.8375,0.0176,-0.0184,0.0205
32.62,0.6994,-0.8884,9.5947,-0.0087,-0.0127,0.0036
32.64,0.6118,-0.8911,9.6455,-0.0162,-0.0336,0.0217
32.66,0.6226,-1.147,9.7974,-0.0294,-0.0658,0.0312
32.68,0.9221,-0.8006,10.059,0.0576,-0.0026,0.1009
32.7,0.7046,-1.0201,9.7373,0.1483,-0.0009,0.0804
32.72,0.7767,-0.9798,9.2769,0.2629,0.1099,0.0642
32.74,0.6881,-0.9886,9.2482,0.2259,0.1447,-0.0393
32.76,0.7838,-0.9705,9.1735,-0.0018,0.0137,-0.2105
32.78,0.7644,-1.0884,9.1237,-0.4244,-0.324,-0.3205
32.8,0.0921,-0.9697,8.9347,-0.9053,-0.4144,-0.5088
32.82,-0.4524,-0.817,9.4226,-1.0345,-0.1137,-0.4583
32.84,0.1495,-0.6389,11.7739,-0.6151,0.3777,-0.2427
32.86,0.8594,-0.8513,12.1327,0.1422,0.5879,0.1091
32.88,1.7709,-0.5516,10.8247,0.8242,0.2578,0.3891
32.9,1.7076,-0.7902,9.0553,1.0253,-0.2976,0.4919
32.92,1.1492,-0.9153,8.7821,0.7534,-0.4557,0.4703
32.94,0.7531,-0.9311,8.966,0.289,-0.253,0.2913
32.96,0.5256,-1.1917,9.2036,-0.1097,0.0906,0.1005
32.98,0.7511,-1.0833,9.6572,-0.2231,0.1846,-0.0049
33.0,0.5478,-1.1765,9.558,-0.2197,0.1087,-0.0637
33.02,0.4781,-1.15,9.7698,-0.1445,-0.0431,-0.1064
33.04,0.5651,-0.8518,9.8793,-0.0686,-0.0655,-0.0175
33.06,0.6017,-0.8655,9.7654,-0.0345,-0.0583,-0.0395
33.08,0.6783,-0.8227,9.733,-0.0013,-0.0138,-0.014
33.1,0.8598,-0.7728,9.8935,-0.0098,-0.0096,-0.0053
33.12,0.8676,-0.9244,9.9344,-0.0088,-0.0644,-0.0227
33.14,0.8928,-0.8036,9.8126,0.077,-0.021,-0.0863
33.16,1.0402,-0.9391,9.6899,0.2084,0.0527,-0.0721
33.18,1.0714,-0.7564,9.6621,0.2648,0.1631,-0.0317
33.2,0.7749,-0.9517,9.4201,0.1736,0.1499,0.0869
33.22,0.7047,-0.8406,9.1119,-0.1259,-0.1372,0.2308
33.24,0.4118,-0.8036,8.9664,-0.5932,-0.378,0.385
33.26,0.1175,-0.9856,9.0757,-0.9578,-0.3859,0.5153
33.28,-0.5678,-1.3254,10.0452,-0.9373,0.0687,0.4518
33.3,0.7116,-0.8814,12.7788,-0.3999,0.5229,0.2297
33.32,0.9886,-1.1661,11.7214,0.3842,0.5601,-0.135
33.34,1.9539,-0.9388,10.9164,0.9075,0.0943,-0.4158
33.36,1.8073,-0.7866,9.4798,0.9826,-0.3681,-0.4955
33.38,0.9767,-0.824,9.1609,0.6347,-0.4085,-0.4101
33.4,1.0399,-0.6568,9.1494,0.1738,-0.1209,-0.2434
33.42,0.7477,-0.7498,9.4478,-0.1984,0.0898,-0.0588
33.44,0.5748,-0.7879,9.6259,-0.2826,0.1162,0.0386
33.46,0.6122,-1.036,9.5621,-0.2044,0.0481,0.0787
33.48,0.8164,-0.8496,10.0509,-0.0962,-0.0278,0.0924
33.5,0.6687,-1.0247,10.0312,0.0065,-0.0029,0.0411
33.52,0.6932,-0.8151,9.6051,-0.0371,-0.023,-0.0164
33.54,0.3887,-1.1087,9.6087,-0.0362,-0.0302,-0.0113
33.56,0.657,-0.7087,9.7248,-0.0135,-0.0047,0.0119
33.58,0.9368,-1.0432,10.3403,0.0213,-0.0149,-0.0008
33.6,0.8281,-0.8252,10.015,0.0279,0.0311,0.0305
33.62,1.235,-0.8625,10.3123,0.1034,-0.0226,0.0694
33.64,1.0411,-0.8045,9.5436,0.1891,0.0677,0.0732
33.66,0.756,-0.9892,9.7593,0.2459,0.1574,0.0187
33.68,0.9724,-1.1236,9.4785,0.0662,0.0989,-0.0937
33.7,0.5585,-1.0739,9.0805,-0.1437,-0.1642,-0.1971
33.72,0.5344,-0.8964,9.1862,-0.5884,-0.334,-0.3455
33.74,0.1025,-0.734,9.4439,-0.7853,-0.2409,-0.3799
33.76,0.1421,-0.7057,10.7189,-0.6766,0.1519,-0.3002
33.78,0.276,-1.0751,11.0532,-0.144,0.4719,-0.0353
33.8,1.7545,-0.5161,11.6065,0.4473,0.3601,0.1787
33.82,1.5609,-0.6084,9.5148,0.8021,-0.0888,0.3626
33.84,1.419,-0.8598,9.3575,0.7931,-0.3016,0.3865
33.86,0.6878,-1.2786,8.9934,0.3869,-0.2668,0.2852
33.88,0.5931,-1.1012,8.9721,0.0497,-0.0415,0.1632
33.9,0.6088,-0.9994,9.4944,-0.1691,0.103,0.0139
33.92,0.2407,-1.0484,9.2773,-0.2469,0.0937,-0.0939
33.94,0.4471,-0.9264,9.487,-0.1363,0.012,-0.0665
33.96,0.7344,-1.1516,9.6439,-0.05,-0.0502,-0.0354
33.98,0.6723,-1.1025,9.8472,-0.0067,-0.0422,0.0059
34.0,0.7166,-0.859,9.6767,0.0069,-0.0068,-0.0185
34.02,0.7227,-1.0284,9.4859,-0.0598,-0.0421,0.0064
34.04,0.6468,-0.8773,9.5771,0.0066,-0.0171,-0.0067
34.06,0.6476,-0.956,9.7845,0.008,-0.0249,-0.0325
34.08,0.7055,-1.1006,9.79,0.1108,-0.0142,-0.0458
34.1,0.7567,-1.0561,9.4514,0.2097,0.0611,-0.1243
34.12,1.0195,-0.897,9.2641,0.3037,0.153,-0.0376
34.14,0.8456,-0.9347,9.4089,0.207,0.1457,0.0586
34.16,0.5219,-0.7014,9.0765,-0.1693,-0.1206,0.2776
34.18,0.4971,-0.8547,9.0164,-0.6467,-0.4045,0.4745
34.2,-0.2078,-0.9999,8.7684,-1.0728,-0.4703,0.5247
34.22,-0.3054,-1.2103,10.244,-1.0039,0.0608,0.435
34.24,-0.0947,-1.3118,11.9842,-0.4104,0.6077,0.1667
34.26,1.7421,-1.2311,12.7238,0.4264,0.5537,-0.182
34.28,1.7089,-1.2073,9.7065,0.9859,0.0642,-0.4932
34.3,1.6105,-1.2069,8.6547,1.0355,-0.4432,-0.5653
34.32,0.7972,-0.8798,8.764,0.6683,-0.4475,-0.4547
34.34,0.8025,-0.7189,8.8957,0.1525,-0.1391,-0.2479
34.36,0.7221,-0.499,9.5678,-0.1904,0.1725,-0.1069
34.38,0.6115,-0.9272,9.3113,-0.3004,0.138,0.0331
34.4,1.0448,-0.7616,10.1596,-0.1867,0.0545,0.0592
34.42,0.7563,-1.1484,9.8652,-0.0659,-0.0518,0.0205
34.44,0.4785,-1.1871,9.4295,-0.0297,-0.0753,0.0363
34.46,0.7655,-0.7444,10.0862,0.0315,-0.0266,0.015
34.48,0.7907,-0.9244,9.7968,0.0273,-0.0111,0.0
34.5,0.3258,-1.1037,8.8343,-0.0898,-0.0577,0.0371
34.52,0.7059,-0.7962,9.9977,0.0286,-0.0317,0.044
34.54,0.7457,-1.1026,9.5489,0.0883,-0.054,0.0399
34.56,1.4207,-0.4339,10.6012,0.2864,0.1013,0.1087
34.58,1.2592,-0.8775,10.3771,0.3425,0.1961,0.0029
34.6,1.4358,-0.5568,10.6852,0.2362,0.1773,-0.093
34.62,0.6815,-0.9415,9.3106,-0.2614,-0.1548,-0.2682
34.64,0.3911,-1.1085,9.1459,-0.6566,-0.4411,-0.4129
34.66,-0.1433,-0.8533,9.0859,-1.0265,-0.3935,-0.4869
34.68,-0.242,-0.4956,10.7234,-0.8387,0.1116,-0.3827
34.7,0.3945,-0.9093,12.2146,-0.2984,0.551,-0.1155
34.72,1.6151,-0.5823,12.325,0.4884,0.482,0.2062
34.74,1.9327,-0.5038,10.0889,1.0438,-0.019,0.4882
34.76,1.2245,-0.9395,8.774,0.9261,-0.444,0.4883
34.78,1.1584,-1.0224,9.167,0.5241,-0.3331,0.3939
34.8,0.6657,-1.1735,8.9464,0.0316,-0.123,0.1666
34.82,0.7027,-1.065,9.542,-0.2352,0.1493,0.0643
34.84,0.4488,-1.2832,9.5823,-0.3024,0.1431,-0.0571
34.86,0.425,-0.9501,9.6737,-0.2014,-0.0062,-0.0713
34.88,0.7002,-1.0235,9.7309,-0.0641,-0.0862,-0.0477
34.9,0.9182,-1.2659,9.9414,-0.0184,-0.0736,-0.0365
34.92,0.7234,-0.7217,9.8348,0.0272,-0.0009,-0.0519
34.94,0.8754,-1.0489,9.7805,0.0515,0.0183,-0.0043
34.96,0.7233,-1.0123,10.0433,0.0499,0.0039,-0.0006
34.98,0.6266,-1.0839,9.5128,-0.0419,-0.0877,-0.0502
35.0,0.6783,-1.0329,9.87,0.0617,-0.063,-0.1224
35.02,1.0921,-0.7982,9.7643,0.1986,0.0687,-0.0732
35.04,0.9662,-0.781,9.3196,0.287,0.1268,-0.0438
35.06,0.8347,-1.0687,9.4086,0.2293,0.1397,0.1467
35.08,0.6305,-0.8396,9.3364,-0.0587,-0.0905,0.2218
35.1,0.3463,-0.9025,8.6739,-0.5964,-0.4207,0.4126
35.12,-0.1175,-1.2678,9.011,-0.9917,-0.3909,0.4926
35.14,-0.4514,-1.1551,9.9589,-0.9578,-0.0119,0.4368
35.16,0.1428,-1.5297,12.0322,-0.4777,0.5165,0.1827
35.18,1.3467,-1.0974,11.956,0.3458,0.5191,-0.1455
35.2,1.829,-1.0972,10.0563,0.9671,0.1167,-0.4335
35.22,1.2988,-1.1524,8.7747,1.0284,-0.3711,-0.5302
35.24,1.0716,-1.1109,8.8354,0.6512,-0.4413,-0.4203
35.26,0.5366,-0.8276,8.9611,0.1544,-0.1563,-0.2755
35.28,0.7902,-1.0517,9.3403,-0.1905,0.1246,-0.0848
35.3,0.6669,-0.803,9.7126,-0.2701,0.1876,0.0426
35.32,0.4432,-1.171,9.5067,-0.1849,0.0636,0.0978
35.34,0.4847,-0.7744,10.0097,-0.0457,-0.0261,0.1092
35.36,0.7986,-0.7489,9.8991,-0.0024,-0.0341,0.0186
35.38,0.8069,-1.0074,9.5203,0.0215,-0.0265,-0.0035
35.4,0.7412,-1.1091,9.6804,-0.0048,-0.0061,0.0098
35.42,0.7239,-0.9512,9.7828,0.0022,-0.0325,0.0173
35.44,0.8404,-0.9063,9.6395,0.0748,-0.0504,0.068
35.46,0.7814,-1.0722,9.4555,0.2088,0.0859,0.0729
35.48,0.7055,-1.1905,9.1526,0.2658,0.1381,0.0169
35.5,1.0714,-1.1794,9.4544,0.2064,0.1556,-0.0494
35.52,0.4251,-1.1441,8.974,-0.1593,-0.1299,-0.2111
35.54,0.3673,-1.0576,8.933,-0.6234,-0.3985,-0.4196
35.56,-0.1908,-0.9182,8.9689,-0.9449,-0.392,-0.4513
35.58,-0.338,-0.6398,10.4203,-0.882,0.0613,-0.4434
35.6,0.0131,-0.7472,11.3695,-0.3418,0.5131,-0.1557
35.62,1.2842,-0.6677,12.4795,0.4572,0.5357,0.1882
35.64,1.5719,-0.8619,9.7953,0.9113,0.0123,0.3976
35.66,1.2795,-0.6724,8.8796,0.9507,-0.3925,0.4619
35.68,0.8075,-1.1225,9.0698,0.5596,-0.34,0.4313
35.7,0.9461,-1.0104,9.1922,0.1227,-0.0783,0.2739
35.72,0.442,-0.9437,9.1405,-0.1951,0.1182,0.0918
35.74,0.4829,-0.9183,9.2637,-0.2659,0.1325,-0.0433
35.76,0.2845,-1.0913,9.5036,-0.1717,0.0578,-0.0708
35.78,0.6181,-0.8092,9.8078,-0.0807,-0.0538,-0.0397
35.8,0.6227,-0.9761,9.6637,-0.0089,-0.0732,-0.0714
35.82,0.8065,-0.8225,9.7632,0.0104,-0.0085,0.0016
35.84,0.7941,-0.7966,9.8056,0.0494,-0.0148,0.0137
35.86,0.5854,-0.7928,9.7175,0.0296,-0.0092,-0.0426
35.88,0.6029,-1.0299,10.0715,0.0175,-0.0065,-0.0311
35.9,0.8676,-0.974,10.172,0.0423,-0.0487,-0.0684
35.92,0.9222,-0.7802,9.6791,0.1711,0.0097,-0.0564
35.94,0.9509,-0.9372,9.3828,0.2954,0.1217,-0.083
35.96,1.1079,-0.763,9.4113,0.236,0.1867,0.0289
35.98,0.4773,-0.6343,9.0643,-0.0079,-0.0139,0.1697
36.0,0.6434,-0.854,9.5211,-0.4599,-0.3324,0.3816
36.02,0.0784,-1.1699,9.0322,-0.9444,-0.4764,0.5478
36.04,-0.4489,-0.9707,9.8298,-1.0188,-0.1154,0.4738
36.06,-0.3994,-1.3319,11.3412,-0.5694,0.3939,0.2836
36.08,1.4442,-1.1942,13.244,0.1889,0.6252,-0.0939
36.1,1.5709,-1.4145,10.7489,0.8718,0.2557,-0.3121
36.12,1.7404,-1.0301,9.2601,1.0364,-0.3306,-0.5043
36.14,1.3689,-0.685,9.0652,0.7915,-0.4388,-0.4295
36.16,0.9854,-0.6932,9.078,0.3452,-0.1637,-0.3046
36.18,0.8734,-0.5957,9.258,-0.1198,0.0916,-0.1355
36.2,0.4646,-0.643,9.5046,-0.3029,0.1517,0.0056
36.22,0.3864,-1.102,9.5473,-0.2623,0.0522,0.0572
36.24,0.7926,-0.7339,9.8703,-0.0745,-0.0211,0.0645
36.26,0.5576,-0.9833,10.0669,-0.0307,-0.0651,0.0237
36.28,0.7603,-0.9125,9.7679,-0.0103,-0.0292,0.0127
36.3,0.5784,-0.7323,9.6817,-0.0257,0.0062,0.0088
36.32,0.6825,-0.7351,9.6531,-0.0106,-0.0124,0.0357
36.34,0.5617,-0.901,9.5467,-0.0253,-0.0662,0.0245
36.36,0.7671,-1.1198,9.8843,0.0747,-0.052,0.0622
36.38,0.8956,-0.7852,9.9138,0.2092,0.0518,0.0769
36.4,0.8196,-0.9482,9.3578,0.2749,0.1085,0.002
36.42,0.6722,-0.9463,9.3756,0.1844,0.1826,-0.0327
36.44,0.8895,-0.9115,8.967,-0.0264,-0.0548,-0.2015
36.46,0.3061,-1.0651,9.1585,-0.5019,-0.3546,-0.4256
36.48,-0.2802,-0.4801,9.1719,-0.9043,-0.4364,-0.4458
36.5,-0.2808,-0.8336,9.7595,-0.9897,-0.0591,-0.4687
36.52,-0.0742,-0.775,11.4723,-0.51,0.4667,-0.2188
36.54,1.0215,-0.3525,12.5569,0.2634,0.5416,0.1018
36.56,1.3077,-0.8635,10.0377,0.878,0.1169,0.3752
36.58,1.464,-1.0243,8.9706,0.9883,-0.3332,0.4965
36.6,0.9452,-1.008,8.898,0.702,-0.3935,0.451
36.62,0.6885,-1.2127,8.9304,0.2165,-0.2144,0.25
36.64,0.5333,-1.1333,9.2438,-0.093,0.1243,0.0542
36.66,0.3451,-1.0457,9.0189,-0.2912,0.1228,-0.0234
36.68,0.5346,-1.1595,9.3905,-0.2358,0.0555,-0.0709
36.7,0.698,-1.1138,9.4905,-0.078,-0.0229,-0.0693
36.72,0.719,-1.0721,9.596,0.0107,-0.0391,-0.0574
36.74,0.4499,-1.0395,9.3334,-0.0095,-0.0461,-0.0604
36.76,0.596,-0.9346,9.6615,0.0162,-0.0154,-0.0138
36.78,0.4688,-0.9756,9.6745,-0.0137,-0.069,-0.0148
36.8,0.6462,-1.0357,9.6447,0.0916,-0.0383,-0.0656
36.82,0.7081,-1.0184,9.4642,0.1678,0.0739,-0.0581
36.84,0.527,-0.8239,9.1047,0.2522,0.1647,-0.1064
36.86,0.6991,-0.6549,9.1442,0.2456,0.1584,0.1063
36.88,0.6485,-0.9289,9.1978,-0.0584,-0.0818,0.2258
36.9,0.4406,-0.5974,9.0226,-0.5317,-0.3307,0.3917
36.92,-0.1759,-1.0045,8.9182,-0.9839,-0.3763,0.4899
36.94,-0.468,-1.145,9.9476,-0.9034,-0.0232,0.4356
36.96,-0.003,-1.0832,11.9594,-0.3697,0.5134,0.2174
36.98,1.3091,-1.2958,12.287,0.3185,0.5068,-0.1412
37.0,1.8895,-0.9637,10.0073,0.8412,0.0786,-0.3801
37.02,1.5513,-0.8917,9.0964,1.0104,-0.3512,-0.4986
37.04,1.1411,-0.6734,9.1843,0.6481,-0.4102,-0.4009
37.06,0.6063,-0.7177,9.1014,0.1613,-0.1411,-0.2626
37.08,0.708,-0.8198,9.0759,-0.1849,0.1109,-0.0759
37.1,0.5402,-0.5375,9.406,-0.247,0.1252,0.038
37.12,0.2927,-0.9237,9.4402,-0.1863,0.012,0.0474
37.14,0.64,-1.1329,9.8721,-0.0961,-0.0367,0.087
37.16,0.6569,-0.9135,9.9252,0.0175,-0.0482,0.0429
37.18,0.7086,-0.5501,9.9959,0.0541,-0.0127,0.0235
37.2,0.8064,-0.883,10.1554,0.0805,-0.0208,0.0747
37.22,0.9699,-0.7042,9.8661,0.0203,-0.0015,-0.0096
37.24,0.5558,-0.8684,9.8004,0.0475,-0.0402,0.0379
37.26,0.8963,-0.704,9.9105,0.1496,-0.016,0.0516
37.28,1.0011,-0.9803,9.3733,0.2389,0.1224,0.0511
37.3,0.76,-1.0908,9.4796,0.2647,0.1502,-0.007
37.32,0.8023,-0.9306,9.2687,0.0572,0.0177,-0.1324
37.34,0.511,-0.9837,9.0559,-0.3189,-0.2572,-0.3641
37.36,0.4105,-0.5868,9.0255,-0.7837,-0.4593,-0.4404
37.38,-0.0388,-0.5816,9.4764,-1.0145,-0.1963,-0.4917
37.4,0.2204,-0.6464,11.7824,-0.7091,0.2877,-0.2946
37.42,0.6212,-0.6895,12.4092,0.0363,0.5932,-0.0091
37.44,1.9458,-0.6902,11.4171,0.6912,0.3351,0.3322
37.46,1.5656,-0.557,9.5722,1.017,-0.1872,0.4723
37.48,1.2723,-0.7711,8.8827,0.8089,-0.4501,0.4428
37.5,0.7866,-0.8903,8.7679,0.3295,-0.3208,0.3133
37.52,0.6142,-1.1591,9.3916,-0.0856,0.0224,0.1216
37.54,0.5795,-0.8528,9.6911,-0.2308,0.1727,0.0436
37.56,0.6802,-1.0395,9.8206,-0.1915,0.1043,-0.0415
37.58,0.5369,-0.8649,9.8162,-0.1216,-0.0318,-0.0493
37.6,0.6822,-0.8208,10.1152,-0.0202,-0.014,-0.0584
37.62,0.7478,-0.8039,9.7733,0.0012,-0.0536,-0.0239
37.64,0.7317,-0.9751,10.0348,0.014,0.0155,-0.0072
37.66,0.9997,-0.8831,9.7094,-0.0258,-0.0492,-0.034
37.68,0.403,-0.9359,9.8668,0.028,-0.0552,-0.0222
37.7,0.7641,-0.7354,9.8334,0.0666,-0.0165,-0.0421
37.72,0.8882,-0.7036,9.4555,0.1628,0.0098,-0.058
37.74,0.8241,-0.458,9.569,0.2819,0.1448,-0.0176
37.76,0.9156,-0.783,9.3576,0.1917,0.0969,0.0387
37.78,0.7904,-0.9371,9.3415,-0.0603,-0.0358,0.2174
37.8,0.3386,-0.7409,8.9783,-0.4833,-0.3545,0.3507
37.82,-0.1678,-1.1172,8.6448,-0.8814,-0.3703,0.4281
37.84,-0.2031,-1.3763,9.9945,-0.8415,-0.0102,0.4221
37.86,0.0848,-0.9025,12.1375,-0.3552,0.4457,0.1329
37.88,0.6813,-1.6284,11.5196,0.277,0.475,-0.1183
37.9,1.9015,-0.8755,10.5982,0.8738,0.1303,-0.3243
37.92,1.714,-0.6666,9.1385,0.9373,-0.3291,-0.4082
37.94,0.8932,-0.8566,8.7033,0.5678,-0.3885,-0.3874
37.96,0.7961,-0.966,8.9872,0.1526,-0.1557,-0.2392
37.98,0.7712,-0.6031,9.5144,-0.0917,0.1258,-0.0394
38.0,0.5401,-0.681,9.504,-0.207,0.1158,0.0148
38.02,0.2525,-0.8851,9.6107,-0.1757,0.0631,0.036
38.04,0.64,-0.8807,9.8561,-0.0506,-0.0285,0.0162
38.06,0.467,-0.9665,9.7218,-0.0418,0.001,0.004
38.08,0.5341,-0.8429,9.4809,0.0117,0.0149,0.006
38.1,0.7843,-1.0188,9.4269,-0.0337,0.0076,-0.0226
38.12,0.4757,-1.0359,9.8454,0.007,0.0119,0.0369
38.14,0.5392,-0.946,9.5777,0.0164,-0.0724,0.0444
38.16,0.8346,-0.8673,9.6711,0.0724,-0.0822,0.0401
38.18,0.4811,-1.0183,9.2883,0.1927,0.003,0.0363
38.2,1.038,-0.7031,9.4465,0.2787,0.1241,0.0439
38.22,0.7995,-1.3244,8.9002,0.2032,0.0346,-0.0507
38.24,0.6648,-0.9068,9.0778,-0.066,-0.0793,-0.1626
38.26,0.7341,-1.0708,9.122,-0.5111,-0.3262,-0.3662
38.28,-0.1158,-0.9865,9.1793,-0.8382,-0.36,-0.425
38.3,-0.3403,-0.5958,10.0906,-0.7889,0.0257,-0.3914
38.32,0.3877,-0.36,12.2992,-0.3599,0.4629,-0.146
38.34,0.9532,-0.6461,11.7183,0.3247,0.4577,0.1175
38.36,1.9316,-0.494,10.6409,0.8288,0.0762,0.3853
38.38,1.3979,-0.8737,9.0475,0.9035,-0.3263,0.48
38.4,0.9951,-0.9456,8.931,0.5954,-0.3792,0.3477
38.42,0.5249,-0.973,9.1025,0.1713,-0.1182,0.2159
38.44,0.7799,-0.972,9.1428,-0.1616,0.0923,0.0501
38.46,0.696,-0.9917,9.5555,-0.2222,0.1612,-0.0317
38.48,0.7008,-0.7032,10.115,-0.1258,0.0827,-0.0506
38.5,0.4836,-0.8831,9.884,-0.0955,-0.0163,-0.0154
38.52,0.7867,-0.9904,9.8704,-0.0101,-0.0342,-0.0311
38.54,0.5418,-1.0409,9.8343,0.0088,-0.0373,-0.0612
38.56,0.7929,-0.7687,9.944,0.0214,-0.0173,-0.008
38.58,0.8998,-0.9779,10.1105,0.1029,0.0028,-0.0347
38.6,0.743,-0.9569,9.6295,0.1801,0.0267,-0.0464
38.62,1.127,-0.7754,9.9333,0.2673,0.1434,-0.0308
38.64,0.8523,-0.6316,9.5257,0.2273,0.1429,0.0542
38.66,0.6633,-1.0421,9.2139,-0.0455,-0.0637,0.1847
38.68,0.488,-0.7672,8.8745,-0.5057,-0.3775,0.3567
38.7,0.183,-1.0597,9.0515,-0.8677,-0.3937,0.449
38.72,-0.4711,-1.229,10.0033,-0.9276,-0.0336,0.4298
38.74,-0.1366,-1.3387,11.6484,-0.4273,0.4402,0.2066
38.76,1.529,-1.0231,12.7737,0.2905,0.5175,-0.1162
38.78,1.7163,-0.9754,10.3584,0.7964,0.1139,-0.3407
38.8,1.7809,-0.779,9.4124,0.9481,-0.335,-0.4467
38.82,1.18,-0.83,9.0957,0.6377,-0.4132,-0.3826
38.84,0.4621,-0.8843,8.6755,0.179,-0.1982,-0.2876
38.86,0.5512,-0.9899,8.9964,-0.1674,0.0886,-0.0986
38.88,0.6788,-0.9329,9.5381,-0.2408,0.1458,-0.0025
38.9,0.4834,-0.9616,9.635,-0.1725,0.0186,0.0135
38.92,0.3864,-1.0924,9.6638,-0.1285,-0.0403,0.0422
38.94,0.9283,-0.6108,10.2318,0.034,-0.0478,0.0568
38.96,0.8238,-1.085,9.8583,-0.0259,-0.0588,-0.0107
38.98,0.8233,-0.9004,9.8797,-0.006,-0.0015,0.0231
39.0,0.8118,-0.8082,9.9102,0.0021,0.0015,0.0456
39.02,0.5481,-0.9904,9.5181,0.018,-0.0311,0.0432
39.04,0.7169,-0.7691,9.8898,0.1307,-0.0114,0.0664
39.06,0.6366,-1.108,9.4844,0.2654,0.0807,0.0991
39.08,0.7828,-0.8476,9.3916,0.3076,0.1614,0.0043
39.1,0.7216,-0.9918,8.8163,0.1054,0.0717,-0.1588
39.12,0.6942,-0.8769,9.1722,-0.2583,-0.2536,-0.3112
39.14,0.2422,-0.9514,8.7725,-0.813,-0.4824,-0.4993
39.16,-0.3443,-0.7119,9.157,-1.0178,-0.2898,-0.4923
39.18,-0.299,-0.3898,11.4155,-0.8466,0.2262,-0.3653
39.2,0.3923,-0.5387,12.7281,-0.0904,0.6066,-0.0266
39.22,1.695,-0.4007,11.9135,0.6121,0.3736,0.2986
39.24,1.6196,-0.7419,9.6213,1.0402,-0.1188,0.4691
39.26,1.2088,-0.8719,8.681,0.8648,-0.4782,0.4768
39.28,0.738,-1.0058,8.8981,0.504,-0.3124,0.3755
39.3,0.4963,-0.8755,9.1053,-0.0021,-0.02,0.1756
39.32,0.3278,-0.9455,8.9166,-0.2381,0.1444,-0.0006
39.34,0.4011,-1.1152,9.5674,-0.2306,0.1265,-0.0827
39.36,0.0965,-0.8034,9.5077,-0.1507,0.0192,-0.0907
39.38,0.5848,-0.8935,9.8931,-0.0435,-0.0553,-0.015
39.4,0.8472,-0.8952,9.7182,0.0216,-0.0581,-0.0415
39.42,0.6644,-1.0361,9.4446,-0.0294,-0.0473,-0.0146
39.44,0.6883,-0.8163,9.7613,0.0371,0.0119,0.0336
39.46,0.6747,-0.7904,9.7382,-0.0041,-0.0618,-0.0015
39.48,0.6244,-0.5487,9.8279,0.0831,-0.0074,-0.0602
39.5,0.7475,-0.9226,9.414,0.1824,0.0225,-0.1098
39.52,0.9532,-0.8906,9.4582,0.2649,0.1511,-0.0412
39.54,0.7283,-0.7012,9.227,0.192,0.1212,0.0764
39.56,0.6347,-0.7798,8.9631,-0.0842,-0.0618,0.2412
39.58,0.4462,-0.7251,8.7337,-0.5809,-0.4216,0.3982
39.6,-0.0069,-0.9016,8.9845,-0.8583,-0.3601,0.5105
39.62,-0.5023,-1.0996,10.0881,-0.8488,0.0079,0.4128
39.64,0.3832,-1.2786,12.27,-0.352,0.4679,0.1655
39.66,0.7105,-1.4767,11.8065,0.3523,0.4918,-0.1846
39.68,1.7424,-1.2053,10.5643,0.8163,0.0177,-0.4109
39.7,1.2231,-1.2091,8.9653,0.8957,-0.3941,-0.4619
39.72,0.8136,-0.7981,8.702,0.5789,-0.3524,-0.3914
39.74,0.8034,-0.7104,9.097,0.1799,-0.0962,-0.2282
39.76,0.6462,-0.6199,9.5619,-0.1428,0.1383,-0.066
39.78,0.2626,-0.8942,9.2093,-0.2837,0.1209,0.0296
39.8,0.3197,-0.9129,9.6396,-0.1992,0.0322,0.072
39.82,0.5227,-0.745,10.116,-0.0644,-0.0087,0.0507
39.84,0.5774,-0.7987,9.5623,-0.0122,-0.0596,-0.0033
39.86,0.6751,-0.736,9.7051,0.0517,-0.0651,0.0198
39.88,0.4998,-0.7515,9.7821,0.0518,-0.04,0.0141
39.9,0.7767,-1.1296,9.6574,-0.0035,0.0251,0.0069
39.92,0.7286,-1.042,10.1674,0.0719,-0.0071,0.004
39.94,0.7558,-0.8697,9.9784,0.0616,0.0232,-0.0162
39.96,0.7784,-0.819,9.8731,0.0282,-0.0115,-0.0256
39.98,0.7759,-0.6829,9.7392,-0.022,-0.0058,-0.0154
40.0,0.6113,-0.7061,9.747,0.0334,-0.007,0.0039
40.02,0.5924,-0.7286,9.7269,-0.0024,0.0229,0.027
40.04,0.4619,-1.013,9.8553,0.0176,-0.0069,-0.0003
40.06,0.6402,-0.8478,9.7438,-0.0083,0.006,0.0067
40.08,0.6383,-0.9944,9.4771,0.0263,-0.0255,-0.0253
40.1,0.7302,-0.7188,9.7982,0.0338,-0.0083,0.0237
40.12,0.6777,-0.8153,9.9638,0.0133,-0.0103,0.0348
40.14,0.6031,-0.8465,10.0033,0.0096,0.0125,-0.0163
40.16,0.7075,-0.9975,9.757,0.018,-0.0154,0.0022
40.18,0.9652,-0.7288,9.7743,0.0168,-0.0411,-0.0033
40.2,0.6924,-0.6938,9.8663,0.0236,-0.0274,0.0161
40.22,1.0653,-0.8842,10.0441,0.041,0.0265,0.0005
40.24,1.021,-1.1459,9.6323,0.0152,0.0112,-0.0072
40.26,0.8808,-0.733,9.6526,0.0168,-0.0116,-0.001
40.28,0.7066,-0.8474,9.6754,-0.0053,-0.0068,-0.0037
40.3,0.5195,-0.6799,9.5362,-0.0126,-0.0484,0.0144
40.32,0.9056,-0.7301,10.0061,-0.02,0.0365,0.0259
40.34,0.4863,-0.802,9.647,-0.0266,-0.0146,-0.0233
40.36,0.737,-0.9727,9.3843,-0.0183,-0.0232,-0.034
40.38,0.6305,-0.8674,9.583,-0.0074,-0.0322,0.0026
40.4,0.685,-1.0581,9.7312,0.0356,-0.0147,-0.0052
40.42,0.5176,-0.8157,9.584,-0.0012,-0.0195,-0.0184
40.44,0.5959,-0.9027,9.638,0.0048,-0.0021,0.0065
40.46,0.369,-0.9242,9.4887,-0.0305,-0.037,-0.0229
40.48,0.7628,-0.7375,9.9967,0.0249,0.0222,-0.0109
40.5,0.3934,-0.982,9.6101,-0.0429,-0.0266,0.0105
40.52,0.6826,-1.0187,9.7659,0.0259,-0.0214,-0.0037
40.54,0.6181,-0.9722,9.6585,-0.0037,-0.0201,-0.0019
40.56,0.6598,-0.9059,9.6166,0.0092,-0.0072,-0.0075
40.58,0.8484,-0.9179,9.8725,0.021,0.0023,0.0188
40.6,0.6483,-1.0286,9.7366,0.0194,-0.0043,0.0263
40.62,0.7185,-0.868,9.5598,0.0042,-0.0195,-0.0092
40.64,0.6032,-1.0011,9.5479,-0.0236,-0.0127,-0.0045
40.66,0.6484,-0.8829,9.8436,0.0027,-0.0114,-0.002
40.68,0.5466,-0.7094,9.6968,0.0089,-0.0107,0.0017
40.7,0.6843,-0.701,9.7825,0.025,0.005,0.023
40.72,0.5548,-1.0297,9.5824,-0.0044,-0.0061,-0.0048
40.74,0.6856,-0.9939,9.8123,0.0221,0.0029,0.0019
40.76,0.5596,-0.8094,9.7136,-0.0167,-0.008,-0.0009
40.78,0.8337,-0.968,9.8682,0.0331,0.0249,0.0105
40.8,0.7713,-0.9163,9.6319,0.0119,-0.0058,-0.0011
40.82,0.6665,-0.8666,9.5611,-0.006,-0.0124,-0.0053
40.84,0.7485,-0.8303,9.8192,0.012,0.0131,0.0091
40.86,0.6092,-0.7466,9.5317,-0.0211,-0.015,-0.0005
40.88,0.7764,-0.9255,9.8859,0.0258,0.0234,0.0127
40.9,0.639,-0.9031,9.5931,-0.0126,-0.0138,-0.0047
40.92,0.4666,-1.0121,9.5534,-0.0101,-0.0086,-0.0163
40.94,0.941,-1.05,9.9446,0.024,0.0164,0.0048
40.96,0.7704,-0.7936,9.7399,0.0148,0.005,0.0014
40.98,0.944,-0.9728,10.0406,0.0448,0.0387,0.0225
41.0,0.91,-0.7971,9.9009,0.0265,0.0143,0.016
41.02,0.55,-0.9168,9.4332,-0.0353,-0.0283,-0.014
41.04,0.7459,-0.9364,9.6409,-0.0069,-0.008,-0.0064
41.06,0.8656,-0.9184,9.9611,0.0286,0.0163,0.0143
41.08,0.6077,-1.0531,9.573,-0.0222,-0.0187,-0.0107
41.1,0.6871,-0.8426,9.7345,0.0001,-0.0014,-0.0009
41.12,0.6357,-1.0506,9.5089,-0.0245,-0.0198,-0.0125
41.14,0.6664,-1.0241,9.8686,0.0103,0.0075,0.0053
41.16,0.7745,-0.9223,9.7553,-0.0033,-0.0025,-0.0017
41.18,0.8914,-0.8291,9.9549,0.0299,0.0224,0.0149
41.2,0.6682,-0.9143,9.6614,-0.0177,-0.0133,-0.0088
41.22,0.8661,-0.8859,9.9887,0.0326,0.0245,0.0163
41.24,0.7091,-0.9279,9.6707,-0.0123,-0.0093,-0.0062
41.26,0.6501,-0.9835,9.5912,-0.02,-0.015,-0.01
41.28,0.6038,-0.8219,9.6549,-0.0056,-0.0042,-0.0028
41.3,0.7515,-0.8286,9.8404,0.0088,0.0066,0.0044
41.32,0.7418,-0.9562,9.888,0.0108,0.0081,0.0054
41.34,0.7261,-0.8768,9.7321,-0.0063,-0.0047,-0.0031
41.36,0.7168,-0.9991,9.6985,-0.0058,-0.0043,-0.0029
41.38,0.9104,-0.7849,9.9982,0.0327,0.0245,0.0163
41.4,0.7086,-1.0154,9.7151,-0.0068,-0.0051,-0.0034
41.42,0.7047,-0.9129,9.7007,-0.0091,-0.0068,-0.0045
41.44,0.7926,-0.865,9.9449,0.0212,0.0159,0.0106
41.46,0.7305,-0.939,9.5394,-0.0124,-0.0093,-0.0062
41.48,0.7398,-0.8049,9.7917,0.0086,0.0064,0.0043
41.5,0.6658,-0.8629,9.6974,-0.0015,-0.0011,-0.0008
41.52,0.6867,-1.0203,9.6142,-0.0129,-0.0097,-0.0064
41.54,0.8151,-0.8369,9.8888,0.0201,0.0151,0.0101
41.56,0.5834,-0.9363,9.6223,-0.0146,-0.0109,-0.0073
41.58,0.6312,-0.8813,9.6406,-0.0065,-0.0049,-0.0032
41.6,0.6499,-0.9507,9.4958,-0.0235,-0.0176,-0.0117
41.62,0.7162,-0.8936,9.7583,0.0007,0.0005,0.0004
41.64,0.6796,-0.8865,9.8121,0.012,0.009,0.006
41.66,0.8411,-0.9312,9.7869,0.0102,0.0077,0.0051
41.68,0.861,-0.8421,9.9221,0.0298,0.0224,0.0149
41.7,0.7566,-1.0166,9.632,-0.0102,-0.0076,-0.0051
41.72,0.8234,-0.8439,9.8771,-0.0007,-0.0005,-0.0003
41.74,0.6385,-0.8632,9.8205,0.0031,0.0023,0.0015
41.76,0.685,-0.9253,9.6422,-0.0109,-0.0082,-0.0054
41.78,0.7344,-0.9183,9.5941,-0.0164,-0.0123,-0.0082
41.8,0.7184,-0.9145,9.7513,0.0046,0.0035,0.0023
41.82,0.8659,-0.8492,9.72,0.004,0.003,0.002
41.84,0.8009,-0.9293,9.7541,0.0139,0.0104,0.0069
41.86,0.6429,-0.9431,9.5389,-0.0227,-0.017,-0.0113
41.88,0.7578,-0.8878,9.7134,-0.0075,-0.0056,-0.0037
41.9,0.7152,-0.9138,9.6405,-0.0108,-0.0081,-0.0054
41.92,0.7874,-0.8245,9.6871,-0.0043,-0.0032,-0.0021
41.94,0.7449,-0.8323,9.6848,-0.0002,-0.0002,-0.0001
41.96,0.7418,-0.9271,9.678,0.0029,0.0022,0.0014
41.98,0.8143,-0.8721,9.8778,0.0186,0.014,0.0093
