time_s,acc_x,acc_y,acc_z,gyro_x,gyro_y,gyro_z
0.0,0.3036,-0.0977,9.8386,0.0166,0.0124,0.0083
0.02,0.3507,-0.0863,9.872,0.0084,0.0063,0.0042
0.04,0.2453,-0.1932,9.7415,-0.013,-0.0098,-0.0065
0.06,0.5098,-0.0782,10.0633,0.0424,0.0318,0.0212
0.08,0.2764,-0.1978,9.6023,-0.0263,-0.0197,-0.0132
0.1,0.4911,-0.0921,10.008,0.0323,0.0242,0.0162
0.12,0.4299,-0.171,9.9836,0.0283,0.0212,0.0141
0.14,0.0996,-0.2478,9.5514,-0.0305,-0.0228,-0.0152
0.16,0.2086,-0.2341,9.773,-0.006,-0.0045,-0.003
0.18,0.3625,-0.0707,9.9208,0.0128,0.0096,0.0064
0.2,0.3623,-0.0742,9.768,0.0058,0.0044,0.0029
0.22,0.3243,-0.0838,9.8373,0.0091,0.0068,0.0045
0.24,0.3889,-0.1087,10.024,0.0287,0.0215,0.0143
0.26,0.3301,-0.0118,9.8926,0.0072,0.0054,0.0036
0.28,0.2861,-0.1924,9.7224,-0.0032,-0.0024,-0.0016
0.3,0.2626,-0.051,9.7809,-0.0075,-0.0056,-0.0037
0.32,0.2824,-0.1842,9.7311,-0.0075,-0.0056,-0.0037
0.34,0.1987,-0.26,9.6222,-0.0243,-0.0182,-0.0121
0.36,0.3419,-0.1873,9.7742,0.0068,0.0051,0.0034
0.38,0.3572,-0.1128,9.7955,0.0087,0.0065,0.0043
0.4,0.2147,-0.1814,9.744,-0.0018,-0.0014,-0.0009
0.42,0.3124,-0.1783,9.82,0.0095,0.0071,0.0048
0.44,0.4569,-0.1646,10.016,0.0261,0.0196,0.0131
0.46,0.4271,-0.1148,9.9996,0.0227,0.017,0.0113
0.48,0.3525,-0.1275,9.945,0.0076,0.0057,0.0038
0.5,0.2434,-0.2345,9.5853,-0.0213,-0.016,-0.0107
0.52,0.3569,-0.0763,9.9064,0.0041,0.0031,0.0021
0.54,0.2313,-0.2601,9.6833,-0.0138,-0.0104,-0.0069
0.56,0.1497,-0.2239,9.4637,-0.0371,-0.0278,-0.0185
0.58,0.2222,-0.2603,9.6502,-0.0235,-0.0176,-0.0118
0.6,0.3798,-0.0994,9.9272,0.0213,0.016,0.0107
0.62,0.1601,-0.2163,9.6113,-0.0296,-0.0222,-0.0148
0.64,0.2432,-0.1498,9.7148,-0.0095,-0.0071,-0.0047
0.66,0.5095,0.035,10.1796,0.0409,0.0307,0.0205
0.68,0.3357,-0.1033,9.9536,0.022,0.0165,0.011
0.7,0.0273,-0.3072,9.2846,-0.0659,-0.0494,-0.033
0.72,0.4137,-0.1464,9.835,0.0111,0.0083,0.0055
0.74,0.4549,-0.1084,10.2105,0.0492,0.0369,0.0246
0.76,0.3608,-0.1192,9.8972,0.0161,0.0121,0.008
0.78,0.3534,-0.0876,9.8942,0.0174,0.013,0.0087
0.8,0.2151,-0.1982,9.7532,-0.0064,-0.0048,-0.0032
0.82,0.3698,-0.1973,9.8546,0.0036,0.0027,0.0018
0.84,0.1301,-0.2674,9.6225,-0.021,-0.0157,-0.0105
0.86,0.3774,-0.0871,9.8641,0.0199,0.0149,0.0099
0.88,0.1817,-0.3038,9.6016,-0.0134,-0.01,-0.0067
0.9,0.4752,-0.0571,9.9561,0.0292,0.0219,0.0146
0.92,0.1159,-0.2704,9.4652,-0.0414,-0.0311,-0.0207
0.94,0.3598,-0.0938,9.8048,0.0033,0.0025,0.0017
0.96,0.3366,-0.03,9.8196,0.0018,0.0013,0.0009
0.98,0.4894,-0.0858,10.1422,0.0439,0.0329,0.0219
1.0,0.2441,-0.1821,9.8447,0.0043,0.0032,0.0021
1.02,0.2611,-0.2009,9.8266,0.0043,0.0032,0.0021
1.04,0.2874,-0.162,9.6804,-0.0087,-0.0065,-0.0043
1.06,0.4534,-0.0614,9.9936,0.0214,0.0161,0.0107
1.08,0.4185,-0.1556,9.8836,0.0084,0.0063,0.0042
1.1,0.3958,-0.1325,9.919,0.0197,0.0148,0.0099
1.12,0.3556,-0.0764,9.7673,0.0072,0.0054,0.0036
1.14,0.3801,-0.0652,9.9909,0.0237,0.0178,0.0119
1.16,0.3158,-0.0917,9.7729,-0.0017,-0.0012,-0.0008
1.18,0.3395,-0.1944,9.7316,0.001,0.0007,0.0005
1.2,0.2925,-0.1519,9.6551,-0.0122,-0.0092,-0.0061
1.22,0.3732,-0.1505,9.7799,0.0105,0.0079,0.0053
1.24,0.3111,-0.1549,9.8156,0.0105,0.0082,0.0057
1.26,0.0905,-0.1498,9.5957,-0.0275,-0.0209,-0.0148
1.28,0.3637,-0.2539,9.7923,-0.0013,0.0012,0.0003
1.3,0.2271,-0.2473,9.7008,-0.0211,-0.013,-0.0107
1.32,0.2791,-0.1479,9.8404,0.002,0.0027,0.0013
1.34,0.1545,-0.2826,9.6323,-0.02,-0.0093,-0.0112
1.36,0.1076,-0.2237,9.4607,-0.0424,-0.0304,-0.0167
1.38,0.3151,-0.1385,9.7088,-0.0058,-0.0096,0.0023
1.4,0.2239,-0.2081,9.7679,-0.0086,-0.0019,-0.0028
1.42,0.1152,-0.1874,9.6144,-0.0263,-0.022,-0.018
1.44,0.314,-0.165,9.6907,-0.0099,-0.0064,-0.0047
1.46,0.5044,-0.0508,10.1073,0.0568,0.0385,0.0342
1.48,0.4019,-0.0752,9.8802,0.0239,0.0221,0.0068
1.5,0.5314,-0.0677,10.0587,0.0393,0.0244,0.0156
1.52,0.4412,-0.0515,9.9225,0.0199,0.0179,0.0123
1.54,0.4717,-0.0668,10.0634,0.0573,0.0382,0.0263
1.56,0.1415,-0.3027,9.6149,-0.0281,-0.0334,-0.0019
1.58,0.1649,-0.2423,9.5691,-0.0218,-0.0017,-0.0157
1.6,0.3575,-0.2138,9.7269,-0.0224,0.008,-0.0007
1.62,0.4703,-0.1169,9.9941,0.0315,0.0286,0.0129
1.64,0.3669,0.0366,9.963,0.0337,0.0237,0.0458
1.66,0.2231,-0.0858,9.7892,0.017,0.0235,-0.0033
1.68,0.2141,-0.3561,9.6272,-0.0237,-0.0133,-0.0402
1.7,0.3646,-0.2071,9.7823,0.0057,0.0213,-0.007
1.72,0.2115,-0.039,9.6786,-0.0034,-0.0074,-0.0153
1.74,0.2268,-0.4079,9.6933,0.0143,0.007,0.0163
1.76,0.1191,-0.1668,9.901,0.005,0.0083,0.009
1.78,0.2279,-0.1291,9.7468,-0.0186,0.0089,-0.0044
1.8,0.4226,0.1167,9.6614,0.0293,0.0234,0.0413
1.82,0.2517,-0.1728,9.6714,0.0094,0.0026,-0.0116
1.84,0.2395,-0.1031,9.5535,-0.0259,-0.0089,0.0112
1.86,0.2973,-0.2376,9.7223,0.0019,-0.0162,-0.0368
1.88,0.2828,-0.1258,9.6509,0.0017,-0.0087,0.0058
1.9,-0.0807,-0.1594,9.5487,-0.0216,-0.0107,-0.0089
1.92,0.3361,-0.1479,9.9722,0.035,0.0114,0.0005
1.94,0.1793,-0.2095,9.4977,0.0022,-0.0373,0.0117
1.96,0.0625,-0.2746,9.4102,-0.0548,-0.0259,-0.0255
1.98,0.002,-0.2273,9.6296,-0.0313,-0.0355,-0.0197
2.0,0.3798,-0.2201,9.7657,0.01,0.0531,-0.0
2.02,0.0386,-0.3451,9.999,0.0121,-0.012,-0.0323
2.04,0.7135,0.2457,10.4505,0.0611,0.0548,0.0302
2.06,0.6221,-0.1792,9.7376,0.1155,-0.0116,0.0143
2.08,0.6088,-0.3232,9.793,0.2908,0.1089,0.0337
2.1,0.3338,-0.2248,9.1921,0.2709,0.1469,-0.0016
2.12,0.3664,-0.0155,9.3508,0.1411,0.0929,-0.0361
2.14,0.125,-0.2432,9.061,-0.316,-0.1345,-0.1689
2.16,-0.4512,-0.2932,8.4399,-0.9628,-0.4042,-0.2624
2.18,-1.0225,-0.0979,9.0996,-1.2446,-0.2402,-0.2781
2.2,-1.0045,0.1711,11.4721,-0.9808,0.2403,-0.2075
2.22,0.013,0.4652,13.8971,-0.0929,0.6276,-0.0474
2.24,1.3743,0.3585,12.5724,0.7415,0.3856,0.1488
2.26,1.8734,0.4134,9.519,1.2877,-0.1297,0.2752
2.28,1.3026,0.22,8.8566,1.1681,-0.4446,0.3154
2.3,0.2668,-0.3183,8.672,0.6064,-0.3229,0.2125
2.32,-0.0926,-0.4716,8.6993,-0.0162,0.0099,0.0518
2.34,0.2783,-0.1132,9.4552,-0.2914,0.1657,0.0009
2.36,-0.1985,-0.2788,9.432,-0.3096,0.1557,-0.0136
2.38,0.2983,-0.474,10.1823,-0.2157,0.082,-0.0277
2.4,0.0874,0.2056,10.144,-0.0184,0.0407,0.0007
2.42,0.4074,-0.0466,10.0821,0.0334,-0.0387,-0.0349
2.44,0.3624,-0.1933,10.0315,0.0298,0.0183,-0.0245
2.46,0.1393,-0.0328,10.082,-0.0095,-0.0004,-0.0258
2.48,0.2448,-0.1613,9.6328,-0.0009,0.009,-0.0078
2.5,0.1917,-0.3122,9.948,0.0455,0.0182,-0.0438
2.52,0.5648,-0.1234,10.138,0.0937,0.0069,-0.0455
2.54,0.6693,0.1553,9.6495,0.201,0.0752,-0.0424
2.56,0.6284,0.1399,9.4101,0.34,0.1563,-0.0839
2.58,0.4759,-0.109,9.1491,0.2956,0.2019,0.0062
2.6,0.3759,0.1164,8.7409,-0.0452,0.002,0.1146
2.62,0.0209,-0.037,8.3959,-0.669,-0.3552,0.2337
2.64,-0.7086,-0.0333,8.6662,-1.2284,-0.4199,0.3206
2.66,-1.1928,-0.5147,9.9229,-1.1817,0.0571,0.2454
2.68,-0.7611,-0.666,13.2278,-0.5928,0.5201,0.1215
2.7,0.4957,-0.4384,13.7496,0.373,0.5953,-0.0684
2.72,1.6693,-0.5159,11.0002,1.0977,0.1686,-0.2602
2.74,1.4877,-0.2972,8.9606,1.2514,-0.3513,-0.3025
2.76,0.6935,0.2574,8.6692,0.856,-0.3891,-0.2584
2.78,0.3761,0.3726,8.7698,0.2656,-0.1364,-0.1221
2.8,0.4566,0.3216,9.1865,-0.1667,0.1247,-0.0512
2.82,0.1058,0.173,9.5214,-0.3517,0.1765,0.0733
2.84,0.2313,0.0273,9.6991,-0.2094,0.1175,0.0334
2.86,0.133,0.0015,9.8908,-0.117,0.0037,0.0302
2.88,0.4801,-0.1705,10.1187,-0.0026,-0.0284,-0.055
2.9,0.2698,-0.103,9.6111,0.0031,0.0099,0.0303
2.92,0.0956,-0.1242,9.6704,-0.0193,0.0006,0.0287
2.94,0.2457,-0.0632,9.6961,0.0105,0.0358,-0.0198
2.96,0.4452,-0.1045,10.2866,0.0583,-0.0021,0.0569
2.98,0.6444,-0.0799,9.8167,0.106,0.0053,0.0435
3.0,0.2733,-0.2041,9.6543,0.2339,0.0765,0.0031
3.02,0.4861,-0.2365,9.3802,0.3056,0.1522,-0.0139
3.04,0.3215,-0.2711,9.502,0.2484,0.1353,-0.0414
3.06,0.3609,-0.3432,8.8978,-0.1106,-0.0775,-0.122
3.08,0.051,-0.2712,8.6677,-0.6777,-0.35,-0.2403
3.1,-0.6614,-0.0021,8.7489,-1.1172,-0.3501,-0.3056
3.12,-1.0462,0.2708,10.2962,-1.0854,0.0561,-0.2356
3.14,0.1639,0.4566,13.6687,-0.4805,0.5293,-0.0742
3.16,0.8353,0.463,13.5526,0.3919,0.5233,0.0802
3.18,1.6486,0.0816,10.3823,1.0921,0.097,0.1907
3.2,1.3851,-0.158,8.7249,1.1827,-0.3513,0.3
3.22,0.5058,-0.2439,8.6854,0.7534,-0.3581,0.202
3.24,0.7276,-0.211,9.2634,0.2087,-0.0754,0.1308
3.26,0.5573,-0.027,9.3176,-0.1836,0.1192,0.0445
3.28,0.001,-0.1563,9.3619,-0.2775,0.175,-0.061
3.3,0.1803,-0.183,10.2498,-0.2238,0.1089,-0.0304
3.32,0.2948,-0.0229,10.3682,-0.0383,0.0229,-0.0028
3.34,0.4561,0.0433,10.3441,-0.032,-0.0216,-0.0179
3.36,0.0917,0.0845,9.983,0.0059,-0.013,0.014
3.38,0.488,-0.1302,9.924,0.0048,-0.0388,0.0275
3.4,0.6572,-0.1108,10.4905,0.0495,-0.0274,-0.0524
3.42,0.6652,-0.0592,9.9778,0.171,0.0384,-0.0578
3.44,0.7408,-0.0957,9.8419,0.3442,0.1406,-0.0216
3.46,0.4566,0.1986,9.307,0.4015,0.1996,-0.0031
3.48,0.1791,0.0971,8.8357,0.1307,0.0705,0.0989
3.5,0.1105,-0.0952,8.1434,-0.4452,-0.2467,0.1996
3.52,-0.4852,-0.1139,8.2905,-1.0309,-0.5119,0.2568
3.54,-1.3626,-0.5389,9.2872,-1.377,-0.2596,0.3353
3.56,-0.7202,-0.5744,12.2689,-0.9959,0.2708,0.2103
3.58,-0.3228,-1.1845,13.8424,-0.1398,0.5944,-0.0108
3.6,1.1809,-0.7558,12.5722,0.8328,0.3689,-0.2115
3.62,1.9232,-0.6075,9.3582,1.3727,-0.1572,-0.3078
3.64,1.1713,-0.3598,8.3399,1.2167,-0.4677,-0.2928
3.66,0.614,0.3726,8.9307,0.6238,-0.2691,-0.1903
3.68,-0.0265,0.106,8.9481,0.0059,0.0016,-0.0992
3.7,0.1208,0.101,9.2217,-0.3133,0.224,-0.0172
3.72,-0.4503,-0.2029,9.0195,-0.3865,0.1054,0.0062
3.74,0.0102,-0.1894,9.5092,-0.1996,-0.0093,0.0394
3.76,-0.2649,-0.241,10.0695,-0.0847,0.0025,0.0209
3.78,0.2669,-0.3035,9.9352,0.0181,-0.0562,0.0418
3.8,0.3474,-0.2553,10.0504,0.0164,0.0546,-0.0124
3.82,0.3932,-0.4988,10.0315,0.062,0.0035,0.0271
3.84,0.0315,-0.3515,9.6109,0.0417,-0.0295,0.0132
3.86,0.6747,-0.1449,9.6392,0.188,0.0068,0.0439
3.88,0.2758,-0.5173,9.3683,0.2885,0.0765,0.005
3.9,0.4949,-0.3472,9.1173,0.3595,0.1808,-0.0282
3.92,0.1167,-0.3523,8.9457,0.0912,0.0243,-0.0722
3.94,-0.1421,-0.2433,8.695,-0.4815,-0.2447,-0.1385
3.96,-0.4055,-0.2206,8.5128,-0.9675,-0.4399,-0.2547
3.98,-1.3944,0.2302,9.2877,-1.1952,-0.1707,-0.2424
4.0,-1.3324,-0.1454,11.4329,-0.8598,0.3095,-0.2103
4.02,0.3735,0.6543,14.0992,0.1046,0.5743,0.0363
4.04,1.1686,0.0384,11.1107,0.8509,0.2545,0.13
4.06,1.6608,0.0981,9.1926,1.2731,-0.1179,0.2278
4.08,0.7553,-0.2025,8.6943,1.0204,-0.3795,0.2138
4.1,-0.0157,-0.8444,8.6308,0.4103,-0.1887,0.1632
4.12,0.1897,-0.4227,9.0899,-0.0805,0.0601,0.0243
4.14,-0.2858,-0.6719,8.771,-0.3255,0.1052,-0.0126
4.16,0.1738,-0.5149,9.3252,-0.2425,0.0865,-0.048
4.18,-0.2239,-0.3084,9.7687,-0.1488,0.004,-0.0221
4.2,-0.1317,-0.4247,9.8549,-0.0217,-0.0086,0.0178
4.22,0.0699,0.0179,9.8597,0.0131,-0.0276,0.0496
4.24,0.2789,0.0806,9.6544,-0.0034,-0.0203,-0.0594
4.26,0.3123,-0.1663,9.7561,-0.0225,-0.0001,-0.0333
4.28,-0.0915,-0.2192,10.0301,0.0442,-0.0377,-0.0399
4.3,0.489,-0.1821,10.0906,0.0773,0.0199,-0.0552
4.32,0.2905,-0.2607,9.742,0.1918,0.0335,-0.0752
4.34,0.7591,-0.0786,9.5252,0.3149,0.1367,-0.0075
4.36,0.3376,0.0211,9.1012,0.2608,0.1242,-0.0045
4.38,0.2147,-0.1885,8.9334,-0.1263,-0.0993,0.1089
4.4,0.2874,-0.2427,8.5275,-0.6031,-0.373,0.1878
4.42,-0.6724,-0.0908,9.0311,-0.9647,-0.2907,0.2548
4.44,-1.1385,-0.8175,10.3057,-1.0041,0.0287,0.2043
4.46,-0.7893,-1.0827,12.7305,-0.4283,0.4966,0.1149
4.48,1.3578,-0.426,13.6533,0.3426,0.4648,-0.0471
4.5,1.2725,-0.8023,10.6265,0.9684,0.1009,-0.2109
4.52,1.4292,-0.2553,9.4075,1.0337,-0.2654,-0.2789
4.54,0.8318,-0.118,9.3449,0.7278,-0.2703,-0.1707
4.56,0.4274,0.0785,9.0861,0.1995,-0.0701,-0.1259
4.58,-0.0932,0.1322,9.3858,-0.175,0.0844,-0.0409
4.6,-0.0601,-0.2597,9.3054,-0.2888,0.0905,0.0206
4.62,0.1646,-0.0272,9.8585,-0.2255,0.043,0.0332
4.64,0.3561,0.0265,10.413,-0.0405,0.036,0.0682
4.66,0.444,0.0074,10.3755,0.026,0.0075,0.0896
4.68,0.6248,-0.5016,10.2216,0.0163,-0.0036,-0.0011
4.7,-0.1714,-0.3823,9.9633,-0.0233,-0.0366,-0.0087
4.72,0.3042,0.0443,9.9111,-0.0422,0.0061,-0.037
4.74,0.3714,0.1605,10.222,0.0907,-0.0283,-0.0124
4.76,0.6479,-0.2887,10.2334,0.1517,0.0033,0.0535
4.78,0.8998,-0.5356,9.5694,0.3506,0.0732,0.0352
4.8,0.8732,-0.1752,9.5643,0.3954,0.1979,0.0045
4.82,0.4844,-0.3518,8.9473,0.1076,0.0996,-0.0525
4.84,0.2002,-0.1977,9.1065,-0.2564,-0.184,-0.1257
4.86,-0.1958,-0.3165,8.6902,-0.9512,-0.4324,-0.28
4.88,-0.933,-0.2112,9.1072,-1.3348,-0.304,-0.24
4.9,-0.6834,0.5806,12.4773,-1.017,0.2398,-0.1831
4.92,-0.0971,0.6827,14.3295,-0.1408,0.6237,-0.0118
4.94,1.452,0.5732,13.3302,0.7724,0.4163,0.1849
4.96,1.6977,0.234,9.8735,1.2574,-0.1219,0.2806
4.98,1.3468,-0.1205,8.7835,1.1416,-0.4017,0.3005
5.0,0.5215,-0.3507,8.4927,0.5857,-0.3159,0.1904
5.02,0.6055,-0.3323,9.1126,0.0272,0.0288,0.1085
5.04,0.1355,-0.4537,9.4887,-0.251,0.1983,0.0558
5.06,0.0478,-0.2872,9.2196,-0.3159,0.1395,-0.0382
5.08,0.219,-0.1431,9.9907,-0.1339,0.0435,-0.0462
5.1,0.3925,-0.1747,10.5029,-0.0355,-0.0234,-0.0393
5.12,0.1117,-0.1088,10.0342,0.0347,-0.0095,-0.022
5.14,0.1518,-0.1936,9.3761,-0.0036,-0.0367,-0.0437
5.16,0.2895,0.0413,10.3127,0.0445,0.0388,0.0082
5.18,0.049,-0.1729,9.8963,0.0147,-0.0321,0.0257
5.2,0.0118,-0.1581,9.7382,0.0423,-0.0443,-0.0765
5.22,0.3404,-0.1484,9.6747,0.2151,-0.0302,-0.0551
5.24,0.6049,0.2052,9.3167,0.3145,0.1138,-0.0253
5.26,0.5442,0.0,9.0637,0.3513,0.2056,0.0594
5.28,0.2901,0.0948,8.5032,0.022,0.047,0.102
5.3,0.2653,0.101,8.5541,-0.5306,-0.3091,0.2338
5.32,-0.6126,0.0551,8.4105,-1.1319,-0.477,0.3256
5.34,-1.3771,-0.7167,9.132,-1.3145,-0.1629,0.303
5.36,-0.7984,-0.6334,13.0204,-0.8177,0.4066,0.1313
5.38,0.1215,-1.0796,14.0696,0.0736,0.6287,-0.0213
5.4,1.842,-0.7168,12.3772,1.018,0.2943,-0.2173
5.42,1.5729,-0.6556,9.0919,1.3758,-0.2182,-0.2876
5.44,0.7443,-0.271,8.2752,1.0813,-0.4363,-0.2859
5.46,0.6664,-0.0722,8.2823,0.4754,-0.2271,-0.1844
5.48,0.2172,-0.1083,8.682,-0.0809,0.0958,-0.053
5.5,-0.1075,-0.0488,8.9699,-0.3336,0.175,-0.042
5.52,0.3327,0.0215,9.8441,-0.2582,0.1436,0.0528
5.54,0.2534,-0.1085,9.9241,-0.1376,0.0117,0.0703
5.56,0.0671,-0.0528,9.5796,-0.0128,-0.027,0.0124
5.58,0.1959,-0.1152,9.6893,-0.006,-0.0398,0.0169
5.6,-0.1403,-0.0731,9.8821,0.0044,0.0007,0.0179
5.62,0.4679,-0.1327,10.0765,0.0163,-0.0227,0.0234
5.64,0.1174,-0.2338,9.9675,0.0822,-0.0355,0.0218
5.66,0.5434,-0.0105,9.8197,0.2164,0.0228,0.0161
5.68,0.3692,-0.1991,9.2235,0.3467,0.0803,0.0213
5.7,0.4756,-0.5256,9.1428,0.3802,0.1893,0.0201
5.72,0.3835,-0.5051,9.0058,0.1764,0.0772,-0.106
5.74,0.1815,-0.5561,8.2575,-0.4675,-0.3081,-0.2549
5.76,-0.5573,-0.0542,8.5176,-1.0708,-0.4828,-0.3149
5.78,-0.8268,0.4061,9.8422,-1.2653,-0.1584,-0.2751
5.8,-1.3285,0.0611,11.9302,-0.9521,0.3329,-0.169
5.82,0.7154,0.7013,15.2009,0.021,0.7073,0.0067
5.84,1.5499,0.322,12.2649,0.9561,0.3646,0.1703
5.86,1.838,0.2299,9.3484,1.4181,-0.1988,0.3085
5.88,1.1913,-0.394,8.4391,1.1294,-0.4855,0.2618
5.9,0.3172,-0.0223,8.8974,0.5875,-0.2556,0.1767
5.92,0.1549,-0.1601,8.6994,-0.0868,0.0313,0.0676
5.94,0.0588,-0.2156,9.5184,-0.3192,0.1876,0.026
5.96,-0.2091,-0.3505,9.1596,-0.3656,0.0501,-0.0526
5.98,0.2717,-0.2684,9.6117,-0.1732,0.0172,-0.1095
6.0,0.2286,-0.2264,10.126,-0.0161,-0.056,0.0172
6.02,0.146,-0.3701,10.0768,0.0154,-0.0148,0.0255
6.04,0.2274,-0.0248,10.0637,-0.0133,-0.0306,-0.0479
6.06,0.2899,-0.0802,10.1182,0.0376,-0.0217,0.0022
6.08,0.314,-0.2094,10.4026,0.0773,-0.023,0.0204
6.1,0.2489,-0.038,9.8268,0.129,-0.0143,-0.0182
6.12,0.6441,-0.0893,9.6035,0.2757,0.1392,-0.0338
6.14,0.4826,0.2821,9.4684,0.2566,0.1604,0.0079
6.16,0.3259,0.0828,8.9923,0.0846,0.055,0.0863
6.18,0.2697,-0.1899,8.9407,-0.3519,-0.1908,0.1719
6.2,-0.6015,-0.064,8.6737,-0.94,-0.3963,0.2321
6.22,-1.1468,-0.5327,9.5322,-1.1406,-0.1941,0.2701
6.24,-0.7833,-0.4764,12.153,-0.7954,0.2553,0.1707
6.26,-0.0893,-0.789,13.5034,-0.0306,0.5255,0.0359
6.28,1.4875,-0.3399,12.7326,0.7861,0.3082,-0.1603
6.3,1.4494,-0.4104,9.1204,1.1196,-0.1766,-0.264
6.32,1.3047,-0.1562,8.8859,1.0177,-0.3794,-0.2329
6.34,0.7828,0.1479,9.0946,0.4441,-0.2119,-0.1666
6.36,0.2146,0.163,9.1549,-0.0432,0.0012,-0.0918
6.38,0.276,0.0415,9.3162,-0.2375,0.134,-0.0169
6.4,-0.0325,0.3469,9.8743,-0.2847,0.1252,0.0506
6.42,0.1905,-0.3132,9.9309,-0.1592,-0.0228,0.0243
6.44,0.1119,-0.1124,10.5079,-0.0479,-0.028,-0.0025
6.46,0.4346,-0.3171,10.2596,0.0411,-0.0158,0.0393
6.48,0.2446,-0.1694,10.0044,-0.0038,-0.0053,0.0141
6.5,0.4722,-0.3153,9.8137,0.0037,-0.003,-0.0301
6.52,0.0415,0.0072,10.0999,0.0349,-0.0363,0.0045
6.54,0.2476,-0.0589,9.9846,0.0696,-0.0395,-0.0052
6.56,0.2803,0.0506,10.1769,0.0968,-0.0112,0.0365
6.58,0.602,-0.2599,9.5838,0.2618,0.0288,0.0516
6.6,0.4396,-0.2843,8.9094,0.35,0.1732,-0.022
6.62,0.6486,-0.6226,8.6277,0.281,0.1743,-0.0436
6.64,0.0966,-0.2882,8.7026,-0.1822,-0.1254,-0.1371
6.66,-0.2182,-0.2711,8.217,-0.839,-0.4338,-0.2676
6.68,-1.0966,0.1831,8.4897,-1.2692,-0.416,-0.3115
6.7,-1.6777,0.2615,10.614,-1.2982,-0.0003,-0.2434
6.72,-0.938,0.3212,13.8542,-0.5475,0.5445,-0.1217
6.74,1.2013,0.4969,14.9464,0.5613,0.6,0.0657
6.76,1.9215,-0.064,10.7137,1.2692,0.0652,0.2645
6.78,1.264,0.178,8.2297,1.3966,-0.4136,0.3356
6.8,0.2891,-0.1425,8.1119,0.8993,-0.4628,0.2966
6.82,-0.1479,-0.3362,8.6208,0.2071,-0.1257,0.1233
6.84,-0.3045,-0.561,9.0208,-0.2609,0.1066,0.0285
6.86,-0.3255,-0.4017,9.2031,-0.3551,0.1454,-0.0336
6.88,0.1391,-0.3448,9.8219,-0.229,0.0918,0.0053
6.9,-0.1691,-0.2002,9.489,-0.1258,-0.0892,-0.0505
6.92,0.1572,-0.3571,9.6885,-0.0264,-0.0623,-0.051
6.94,0.2007,-0.2603,9.7412,0.0524,-0.0627,-0.0524
6.96,-0.2218,-0.3808,9.4452,-0.0172,-0.0368,-0.035
6.98,0.23,-0.4115,9.7762,-0.0189,0.0144,-0.0051
7.0,0.0654,-0.2438,9.7466,-0.0229,-0.0319,-0.0783
7.02,0.1876,-0.2666,9.6748,0.0641,-0.056,-0.0423
7.04,0.5378,-0.2693,9.6297,0.2251,0.0199,-0.0384
7.06,0.2637,-0.0244,9.3609,0.3374,0.0989,-0.0462
7.08,0.4522,-0.2768,9.0858,0.3227,0.2096,-0.0337
7.1,0.0412,0.1313,8.3431,0.0583,0.0237,0.049
7.12,-0.386,0.0091,8.4583,-0.4885,-0.2859,0.1747
7.14,-0.6096,-0.2947,8.7166,-1.0925,-0.4291,0.3318
7.16,-1.0623,-0.1411,9.1255,-1.2905,-0.1722,0.2574
7.18,-1.5605,-0.756,12.0494,-0.821,0.4153,0.1816
7.2,0.2091,-0.5795,14.9332,0.0332,0.5784,-0.0049
7.22,1.6553,-0.5451,12.1351,0.9568,0.3249,-0.1829
7.24,1.6147,-0.8242,9.1253,1.357,-0.1691,-0.3022
7.26,0.8904,-0.0181,8.4131,1.0372,-0.403,-0.2718
7.28,0.7194,-0.0548,8.7499,0.4559,-0.2262,-0.1405
7.3,0.5213,-0.0226,8.8924,-0.0243,0.0885,-0.0701
7.32,-0.0732,-0.2405,9.0843,-0.3324,0.142,0.0022
7.34,-0.0207,-0.294,9.3217,-0.3049,0.0801,0.0578
7.36,-0.0879,-0.421,9.858,-0.1606,-0.069,0.0344
7.38,0.1111,-0.3389,10.1104,-0.0409,-0.0314,0.0095
7.4,0.6356,-0.5083,9.8764,0.0392,-0.0509,0.0454
7.42,0.3285,-0.2425,9.6812,0.0052,-0.0009,-0.0195
7.44,0.4001,-0.3422,10.1776,0.0527,0.0124,0.0115
7.46,0.5707,0.0574,10.1484,0.0182,-0.0527,-0.0197
7.48,0.2699,-0.106,10.1525,0.0663,-0.0777,0.0388
7.5,0.4666,-0.4119,9.5966,0.2101,-0.0208,0.0184
7.52,0.5125,-0.4337,9.4352,0.3378,0.142,0.066
7.54,0.0259,-0.4211,8.8711,0.2895,0.1158,-0.0266
7.56,0.3611,-0.3423,8.6663,-0.0182,-0.0482,-0.1415
7.58,-0.2007,-0.2107,8.7253,-0.6081,-0.3266,-0.2217
7.6,-0.5519,0.2264,8.5219,-1.1535,-0.4065,-0.2955
7.62,-1.1964,0.0891,10.2413,-1.2638,-0.0505,-0.28
7.64,-0.9877,0.0897,13.0498,-0.7339,0.4733,-0.1317
7.66,1.0983,0.5674,14.9226,0.3001,0.5922,0.0592
7.68,1.9584,0.2473,11.8558,1.1194,0.2036,0.2513
7.7,1.6172,0.2239,9.1516,1.3278,-0.321,0.312
7.72,1.1301,-0.2871,8.7855,0.9873,-0.4456,0.2966
7.74,0.4045,-0.5499,8.2329,0.3234,-0.2274,0.168
7.76,-0.1192,-0.2954,9.0185,-0.0971,0.0569,0.0606
7.78,0.2217,-0.1958,9.4431,-0.3053,0.1796,0.0273
7.8,0.4752,-0.0827,9.9257,-0.2753,0.1321,-0.0092
7.82,0.2879,-0.5516,10.023,-0.1952,-0.0294,-0.0667
7.84,0.274,-0.2567,10.1548,-0.0424,-0.0503,-0.0444
7.86,0.3259,0.0173,10.0545,-0.0071,-0.0398,0.0075
7.88,0.6216,0.0595,10.4004,0.0609,0.0048,0.0071
7.9,0.5393,-0.1078,9.9089,0.0302,-0.0106,-0.0258
7.92,1.0264,-0.1537,10.2021,0.1386,-0.0218,-0.0613
7.94,0.8094,-0.2422,9.7166,0.2551,0.0937,-0.0879
7.96,0.4738,0.0508,9.7991,0.4389,0.1576,0.0306
7.98,0.2198,0.3451,8.9909,0.2327,0.1278,0.0587
8.0,0.5494,0.1969,8.8621,-0.1719,-0.0812,0.1332
8.02,-0.3765,-0.229,8.4986,-0.7884,-0.4275,0.238
8.04,-0.7863,-0.1396,8.5226,-1.2622,-0.3701,0.2766
8.06,-1.5217,-0.8591,9.9283,-1.2154,0.0676,0.2402
8.08,-0.324,-0.5922,14.4289,-0.4575,0.4984,0.0678
8.1,1.4133,-0.5219,14.0142,0.6019,0.5525,-0.1141
8.12,1.8098,-0.5513,10.2762,1.1793,0.0345,-0.2544
8.14,1.0591,-0.4915,8.5611,1.2421,-0.404,-0.29
8.16,0.5435,0.0347,8.3645,0.7992,-0.3646,-0.241
8.18,0.556,0.3377,8.921,0.1809,-0.0657,-0.1579
8.2,0.296,0.1168,9.0763,-0.2576,0.1782,-0.0169
8.22,0.2656,0.2601,9.497,-0.2869,0.1771,0.0236
8.24,0.1641,-0.422,9.5759,-0.2314,0.0536,0.0433
8.26,0.0275,-0.155,10.1308,-0.0627,0.0036,0.0389
8.28,0.2909,-0.0555,10.2531,0.0171,-0.0352,0.025
8.3,0.4733,-0.3388,10.0262,0.0447,0.014,-0.0138
8.32,0.1589,-0.3526,9.5896,-0.0333,-0.0345,-0.0081
8.34,0.1515,-0.3765,9.8987,0.0452,-0.0504,0.0471
8.36,0.1115,-0.3308,9.6904,0.0211,-0.0504,0.0047
8.38,0.478,-0.0491,9.7738,0.1797,0.0293,0.0625
8.4,0.2737,-0.3924,9.433,0.3458,0.0928,0.0502
8.42,0.6895,-0.4228,9.4415,0.4053,0.2248,0.0037
8.44,0.2863,-0.2304,9.0761,0.1978,0.1135,-0.0996
8.46,-0.2271,-0.6432,8.3529,-0.4205,-0.2876,-0.1912
8.48,-0.9524,-0.6913,7.8484,-1.1186,-0.5384,-0.3316
8.5,-1.2379,0.0624,8.9846,-1.3698,-0.2552,-0.3319
8.52,-1.5903,0.3638,11.6897,-1.0392,0.2975,-0.18
8.54,0.3568,0.7054,15.0824,-0.0788,0.6559,-0.0179
8.56,1.2908,-0.3127,12.6476,0.8892,0.389,0.1693
8.58,1.8119,0.2437,9.3761,1.4322,-0.188,0.3047
8.6,1.3338,-0.3338,8.3005,1.2426,-0.4646,0.3262
8.62,0.5512,-0.2563,8.4139,0.6579,-0.2979,0.2343
8.64,0.1034,-0.3887,8.6972,0.0052,-0.0221,0.0661
8.66,0.1545,-0.4895,8.8254,-0.3636,0.2035,0.0097
8.68,-0.1811,-0.1664,9.3416,-0.35,0.1461,-0.033
8.7,-0.3127,-0.4906,9.4246,-0.2226,-0.0438,-0.071
8.72,0.2236,-0.1078,10.0132,-0.033,-0.0309,-0.0571
8.74,0.0507,-0.0987,10.2267,0.0296,-0.0215,0.0311
8.76,0.2656,-0.2625,9.4588,-0.0094,-0.0405,-0.0593
8.78,0.3019,-0.0107,9.5601,-0.0252,-0.1011,-0.0381
8.8,0.6452,-0.1539,10.1999,0.1154,-0.0176,-0.017
8.82,0.2628,0.3247,9.8479,0.1842,0.052,-0.008
8.84,0.5387,-0.0195,9.695,0.2691,0.0847,-0.0472
8.86,0.431,0.0755,9.3464,0.3338,0.2,0.0003
8.88,0.0848,-0.0084,8.3673,0.013,-0.026,0.0632
8.9,-0.1656,0.1267,8.4957,-0.4961,-0.3008,0.1825
8.92,-0.3128,-0.4684,8.7051,-0.982,-0.4154,0.2886
8.94,-1.3944,-0.3415,9.3048,-1.086,-0.1761,0.2923
8.96,-0.6181,-0.7054,12.7883,-0.7812,0.3423,0.1451
8.98,0.008,-0.5477,13.6273,0.119,0.5646,-0.0258
9.0,1.8606,-0.5181,11.9819,0.8764,0.2342,-0.1905
9.02,1.5359,-0.3847,9.1492,1.2016,-0.2245,-0.2832
9.04,0.9883,-0.4198,8.4908,0.9519,-0.4107,-0.274
9.06,0.222,0.259,8.8822,0.4077,-0.2167,-0.1292
9.08,0.4811,-0.0636,8.8507,-0.0591,0.0518,-0.0386
9.1,0.1958,0.3578,9.1016,-0.2773,0.1553,0.0205
9.12,0.1525,0.1644,9.7376,-0.2412,0.094,0.0242
9.14,0.4405,0.0326,9.9005,-0.1189,0.0281,0.017
9.16,0.5412,-0.233,10.3258,-0.0079,-0.0668,0.0341
9.18,0.2481,-0.2408,10.1644,0.0571,-0.0424,0.0416
9.2,0.272,0.3073,10.1665,0.0771,-0.0065,-0.0261
9.22,0.2369,-0.1913,10.0572,-0.0174,-0.0079,0.0082
9.24,0.5631,-0.072,10.2538,0.0204,-0.0115,0.0189
9.26,1.1051,0.0297,10.7158,0.1089,-0.0139,0.0478
9.28,0.5186,-0.0685,9.9336,0.2747,0.0298,0.0747
9.3,0.7412,-0.2284,9.6218,0.3609,0.115,0.0286
9.32,0.7044,-0.332,9.6256,0.3311,0.1485,-0.0436
9.34,0.5396,-0.317,8.9475,-0.046,-0.0475,-0.0938
9.36,-0.0309,-0.4273,8.5733,-0.6525,-0.3851,-0.2627
9.38,-0.7831,0.2652,8.4805,-1.2253,-0.432,-0.3302
9.4,-1.4272,0.1852,10.0559,-1.3178,-0.0852,-0.3087
9.42,-0.2681,0.705,14.1289,-0.6486,0.4772,-0.1499
9.44,0.3716,0.4315,14.1158,0.3028,0.5365,0.0405
9.46,1.8693,0.2469,11.6719,1.1348,0.1363,0.2204
9.48,2.0664,-0.0484,9.3164,1.3741,-0.2825,0.2981
9.5,1.2248,-0.0656,8.5538,0.9428,-0.4535,0.2438
9.52,0.4923,-0.2043,8.7994,0.2755,-0.1622,0.1366
9.54,-0.0884,-0.2221,9.2692,-0.1661,0.1273,0.054
9.56,0.6032,-0.385,9.7038,-0.2786,0.1687,-0.0043
9.58,0.0331,-0.3105,9.7908,-0.2511,0.0726,-0.0704
9.6,0.1131,-0.0372,10.1608,-0.1009,-0.0416,-0.0271
9.62,0.4602,-0.1815,9.9949,-0.0564,-0.059,-0.0247
9.64,0.2533,-0.1455,9.9036,-0.0125,-0.0161,-0.0203
9.66,0.4568,-0.1328,9.8503,0.003,0.0259,-0.0266
9.68,0.4119,-0.3067,9.8848,-0.0042,-0.0567,-0.0274
9.7,0.3608,-0.275,9.8164,-0.0187,-0.075,-0.012
9.72,0.5703,0.0549,10.2101,0.1696,0.0129,-0.0258
9.74,0.3701,-0.0324,9.5876,0.3057,0.0475,-0.0807
9.76,0.3436,-0.0384,9.7791,0.3821,0.1582,-0.0019
9.78,0.4361,-0.0976,8.8836,0.1725,0.0563,0.0453
9.8,0.1458,0.2683,8.9392,-0.1697,-0.1661,0.1867
9.82,-0.2653,-0.1314,8.209,-0.8922,-0.4291,0.3127
9.84,-1.2031,-0.4377,8.7327,-1.2092,-0.351,0.3081
9.86,-1.4738,-0.6209,10.8042,-1.0514,0.1165,0.2287
9.88,-0.0936,-0.7465,14.6141,-0.3044,0.5404,0.0755
9.9,1.1047,-0.9906,12.9362,0.6048,0.4441,-0.1246
9.92,1.7838,-0.6437,9.7624,1.2053,-0.0558,-0.2146
9.94,1.3092,-0.2222,8.5876,1.1959,-0.4031,-0.2579
9.96,0.5432,-0.354,8.3564,0.685,-0.4133,-0.2517
9.98,0.2434,-0.0612,8.5661,0.1158,-0.0963,-0.0905
10.0,-0.0664,-0.2252,8.6959,-0.2628,0.1291,-0.0352
10.02,-0.159,-0.0438,9.2461,-0.323,0.1669,0.0097
10.04,-0.1843,-0.1809,9.6529,-0.1891,-0.0083,-0.0117
10.06,0.0426,-0.1272,9.8343,-0.0299,-0.0349,0.0371
10.08,0.5927,-0.0814,10.1199,0.0088,0.0231,-0.0055
10.1,-0.1975,-0.3571,10.1045,0.0771,0.0002,-0.0002
10.12,0.25,-0.2057,9.585,0.0205,0.0096,0.0335
10.14,-0.6732,-0.5806,9.7206,0.0293,-0.0426,0.0545
10.16,0.2875,-0.4021,9.8759,0.0342,-0.0634,0.0426
10.18,0.7982,0.128,9.4085,0.1419,-0.002,0.0386
10.2,0.6151,-0.2231,9.1415,0.3168,0.091,-0.0013
10.22,0.6378,-0.7266,8.9533,0.3303,0.1401,0.0038
10.24,0.4592,-0.1498,8.9214,0.0871,0.0628,-0.0823
10.26,0.9492,0.189,8.801,-0.4608,-0.2878,-0.1702
10.28,-0.5063,0.1594,8.1771,-1.0481,-0.4071,-0.2662
10.3,-1.1923,0.0845,9.4276,-1.202,-0.1396,-0.254
10.32,-0.8776,0.3989,12.104,-0.7611,0.3249,-0.1325
10.34,0.9217,0.7766,14.7641,0.0611,0.5128,0.0512
10.36,1.2783,0.1309,11.5788,0.8342,0.2502,0.1624
10.38,1.5712,0.0518,9.2924,1.2527,-0.2393,0.2481
10.4,0.7925,-0.1985,8.2982,0.9717,-0.4221,0.2139
10.42,0.4658,-0.186,8.735,0.3811,-0.2438,0.1557
10.44,-0.0685,-0.4234,8.679,-0.0842,0.0298,0.0604
10.46,-0.0994,-0.567,9.1591,-0.3111,0.1209,0.0226
10.48,-0.0475,-0.356,9.4414,-0.2682,0.0435,-0.0152
10.5,0.6403,-0.0991,10.1851,-0.1477,-0.0166,0.0061
10.52,0.266,-0.018,10.1358,-0.0545,-0.0499,-0.039
10.54,0.2587,-0.0629,9.4568,-0.0311,-0.0523,-0.0265
10.56,-0.0021,-0.2392,9.586,-0.0006,-0.0235,-0.0106
10.58,0.1045,-0.0459,9.745,0.0415,0.0523,-0.0032
10.6,0.4684,-0.2811,10.0632,-0.0266,0.008,0.0128
10.62,0.4941,-0.3447,10.145,0.0752,-0.0759,-0.0007
10.64,0.532,0.0136,9.8985,0.184,0.0158,-0.0002
10.66,0.6316,-0.0097,9.3131,0.3299,0.0638,-0.0364
10.68,0.6611,0.395,9.4708,0.4206,0.1938,-0.01
10.7,0.2186,-0.0902,8.9601,0.198,0.0357,0.0802
10.72,0.2963,0.0406,8.4968,-0.3649,-0.2407,0.2259
10.74,-0.59,-0.2231,8.3438,-1.0844,-0.5373,0.2678
10.76,-1.2807,-0.3379,8.8898,-1.395,-0.3479,0.3323
10.78,-1.1425,-0.3426,11.7052,-0.9984,0.2596,0.2639
10.8,0.5752,-0.3642,15.4961,-0.1247,0.6294,0.0481
10.82,1.3913,-0.5529,13.3764,0.8105,0.421,-0.1281
10.84,2.2552,-0.4831,9.948,1.4566,-0.1405,-0.2925
10.86,1.3221,-0.0051,8.4308,1.235,-0.4285,-0.327
10.88,0.8252,0.232,8.6609,0.6742,-0.3496,-0.2425
10.9,0.3945,-0.0333,8.8788,0.0455,-0.0458,-0.1239
10.92,0.4719,0.1001,9.4074,-0.2836,0.1723,0.0111
10.94,0.09,0.086,9.3821,-0.3216,0.1075,0.0557
10.96,0.0599,-0.0833,9.8329,-0.2357,0.0327,-0.0007
10.98,0.1722,-0.0841,10.1893,-0.06,-0.0084,0.0306
11.0,0.5673,-0.0111,10.2049,0.0196,-0.0807,0.0052
11.02,0.5893,-0.159,10.0007,0.0238,-0.0505,0.0083
11.04,0.452,-0.3123,9.9746,0.0032,-0.0416,-0.0314
11.06,0.4795,0.2633,10.3963,0.0179,-0.0372,-0.0155
11.08,0.5601,-0.3614,10.1687,0.0921,-0.0438,0.0247
11.1,0.5971,-0.2624,9.941,0.239,-0.0515,0.0502
11.12,0.3551,-0.1969,9.4393,0.3371,0.0944,0.0241
11.14,0.5199,-0.1442,9.2265,0.2737,0.0914,-0.0203
11.16,0.3972,-0.2335,9.1681,-0.0067,-0.0194,-0.1061
11.18,0.2893,-0.2295,8.7194,-0.6056,-0.3966,-0.2145
11.2,-0.6128,-0.2721,8.2201,-1.16,-0.4685,-0.3034
11.22,-1.2657,-0.062,10.0931,-1.1821,-0.0615,-0.2528
11.24,-0.834,0.4925,12.7876,-0.5887,0.4183,-0.093
11.26,0.943,0.5728,14.6455,0.3271,0.5652,0.0785
11.28,1.9459,0.3731,11.3103,1.05,0.1694,0.2037
11.3,1.5918,0.3008,8.8563,1.2485,-0.31,0.2436
11.32,0.9327,-0.4102,8.0904,0.8543,-0.4893,0.2411
11.34,0.4917,-0.471,8.6153,0.2829,-0.164,0.149
11.36,0.3983,-0.5809,9.0264,-0.1441,0.0678,0.0118
11.38,0.7049,-0.2647,9.117,-0.3353,0.1347,-0.0294
11.4,0.2023,-0.3614,9.3116,-0.2705,0.0392,-0.0475
11.42,0.1714,-0.3468,9.9898,-0.1232,-0.0258,-0.0372
11.44,0.4133,-0.2007,10.1268,-0.0039,-0.0644,-0.0341
11.46,0.5816,-0.4543,10.0109,0.0175,-0.0327,0.0319
11.48,0.3348,-0.1097,9.8778,0.0536,-0.0471,0.0056
11.5,0.4807,-0.1063,10.067,0.0617,-0.0298,0.0019
11.52,0.2185,0.0189,9.7122,0.0158,-0.0495,-0.0093
11.54,0.4799,-0.1007,9.7888,0.0919,-0.0547,-0.059
11.56,0.6882,0.061,9.5334,0.2687,0.0236,-0.001
11.58,0.7248,0.2616,9.5527,0.3887,0.1812,-0.0306
11.6,0.1523,-0.014,8.6581,0.2264,0.0701,0.0394
11.62,0.0159,0.1146,8.4702,-0.2833,-0.1961,0.1842
11.64,-0.1261,-0.0921,8.5296,-0.8119,-0.3895,0.2258
11.66,-1.3129,-0.4279,8.3161,-1.233,-0.3942,0.2772
11.68,-1.0682,-0.2732,11.4124,-1.0477,0.1652,0.1984
11.7,-0.5427,-1.0881,13.4609,-0.3678,0.5606,0.0639
11.72,0.9822,-0.8175,13.2158,0.6411,0.445,-0.107
11.74,1.8714,-0.8625,10.0915,1.298,-0.0314,-0.2219
11.76,1.36,-0.1258,8.7167,1.2148,-0.4242,-0.2703
11.78,0.5287,0.1378,8.6909,0.7061,-0.3554,-0.2021
11.8,0.3139,0.0604,8.6574,0.1037,-0.0888,-0.1138
11.82,0.1787,-0.1084,8.9091,-0.2769,0.1329,-0.0161
11.84,0.0548,-0.0408,9.2649,-0.3175,0.1581,0.0023
11.86,-0.0139,-0.3356,9.357,-0.2162,-0.0194,0.054
11.88,0.0181,-0.0125,9.7829,-0.1193,-0.0661,0.0211
11.9,0.5577,-0.2617,9.9741,0.0128,-0.0235,0.0609
11.92,0.5046,-0.1122,10.0211,0.0676,-0.0136,0.0067
11.94,0.469,-0.2885,9.951,0.0088,0.0359,0.0361
11.96,0.1747,-0.2033,9.5135,-0.03,-0.0495,-0.0058
11.98,0.2846,-0.0672,10.0487,0.064,-0.0468,0.0595
12.0,0.2973,-0.1944,9.5993,0.0892,-0.0866,0.0248
12.02,0.1228,-0.2171,9.6906,0.2645,0.0285,-0.0003
12.04,0.2237,-0.4924,9.1128,0.3977,0.1344,0.0087
12.06,0.456,-0.5515,9.1968,0.3063,0.1425,-0.0144
12.08,0.539,-0.2895,8.6297,-0.0812,-0.0776,-0.1137
12.1,-0.2675,-0.3605,8.5319,-0.7199,-0.3497,-0.2287
12.12,-1.0303,-0.1955,8.4325,-1.2825,-0.4483,-0.297
12.14,-1.1072,0.433,10.2322,-1.3267,-0.0529,-0.2554
12.16,-0.9054,0.5936,13.519,-0.6795,0.5199,-0.1226
12.18,1.0925,0.6231,14.3398,0.3936,0.5498,0.0956
12.2,2.0414,0.5978,11.6274,1.1605,0.1282,0.2651
12.22,1.8909,0.2743,8.8412,1.3747,-0.3535,0.2935
12.24,1.1997,-0.0086,8.5388,0.9679,-0.4712,0.2601
12.26,0.6543,-0.3954,8.8257,0.2892,-0.1487,0.1837
12.28,0.0566,-0.5784,8.7546,-0.2198,0.0582,0.0273
12.3,0.148,-0.4651,9.2288,-0.346,0.1262,-0.0346
12.32,-0.1934,-0.2872,9.452,-0.335,0.0247,-0.0633
12.34,0.1671,-0.2854,10.1607,-0.0795,-0.0274,-0.0006
12.36,0.3011,-0.0303,10.2368,-0.0142,-0.0851,0.0108
12.38,0.3436,-0.1137,10.1826,0.045,-0.0515,0.0204
12.4,0.9105,-0.1869,10.3762,0.0641,-0.0323,-0.0329
12.42,0.5416,-0.0738,10.052,0.0386,-0.026,-0.0091
12.44,0.6808,-0.0131,10.4668,0.0689,-0.0606,-0.0395
12.46,0.8172,-0.0319,10.3019,0.251,0.0264,-0.0282
12.48,0.7514,0.0452,9.6503,0.3554,0.1419,-0.0221
12.5,0.6598,0.0118,9.1863,0.3083,0.1541,-0.0019
12.52,0.3309,0.0777,9.0497,0.011,-0.0555,0.0784
12.54,0.3586,0.2293,8.7064,-0.5714,-0.2784,0.2249
12.56,-0.6344,0.2835,8.7156,-1.1155,-0.4378,0.2687
12.58,-1.1122,-0.4796,10.1885,-1.264,-0.1116,0.3168
12.6,-0.3472,-0.253,14.0811,-0.6909,0.4016,0.1714
12.62,0.8457,-0.5707,14.3187,0.1698,0.5896,-0.0215
12.64,1.7627,-0.5694,11.6146,1.0026,0.1975,-0.1986
12.66,1.961,-0.5362,9.0014,1.2968,-0.2648,-0.279
12.68,1.0242,0.1505,8.4076,1.0167,-0.4198,-0.247
12.7,0.6071,0.1817,8.7552,0.3375,-0.2165,-0.1714
12.72,0.1307,0.0179,8.8549,-0.1441,0.0479,-0.1055
12.74,0.3922,0.145,9.6422,-0.2942,0.2029,0.0511
12.76,0.2683,0.0401,9.5714,-0.2602,0.0686,0.0389
12.78,0.2619,-0.0846,9.8293,-0.1895,0.0231,0.0614
12.8,0.3742,-0.0872,9.9735,-0.0281,-0.0367,0.0462
12.82,0.757,-0.0313,10.2581,0.057,-0.0176,-0.0317
12.84,0.3571,0.0493,9.9633,0.0275,-0.0102,0.0248
12.86,0.3574,0.1044,9.8998,-0.0146,-0.0161,0.0103
12.88,0.3177,0.0678,10.0918,-0.0121,-0.0338,0.0177
12.9,0.576,-0.2277,9.9682,0.0503,-0.0574,0.0373
12.92,0.2408,0.0604,9.9381,0.1789,-0.0392,0.0914
12.94,0.418,0.0767,9.3731,0.2518,0.0432,0.0204
12.96,0.5051,-0.4899,8.9053,0.3757,0.1375,0.0577
12.98,0.6286,-0.1239,9.1305,0.2775,0.1118,-0.0324
13.0,0.3253,-0.455,8.6631,-0.2379,-0.18,-0.1696
13.02,-0.4009,-0.1941,8.2996,-0.9119,-0.4862,-0.3146
13.04,-1.2814,-0.0543,8.2169,-1.4127,-0.4279,-0.3182
13.06,-0.5571,0.8378,12.0721,-1.1979,0.1124,-0.2463
13.08,-0.1037,0.811,14.7083,-0.3666,0.6021,-0.0674
13.1,1.1249,0.3016,13.439,0.6681,0.5449,0.0786
13.12,2.4988,0.3654,10.7929,1.3718,-0.0014,0.2291
13.14,1.3311,0.0066,8.4906,1.3169,-0.456,0.3066
13.16,0.5844,-0.3967,8.1372,0.7375,-0.4139,0.2384
13.18,0.5332,-0.4336,8.5646,0.1052,-0.0648,0.1679
13.2,0.4081,-0.2106,9.2662,-0.221,0.2009,0.073
13.22,0.2226,-0.668,8.8932,-0.394,0.1413,-0.0134
13.24,0.2246,-0.2845,9.6135,-0.2471,0.0267,0.0251
13.26,0.0637,-0.2409,9.5215,-0.0442,-0.0669,-0.0164
13.28,-0.1526,-0.1146,9.6221,-0.04,-0.0361,-0.052
13.3,0.3711,-0.2408,9.7882,0.0638,-0.0067,-0.0217
13.32,0.346,-0.3943,9.514,0.0088,-0.0411,0.0338
13.34,0.3119,-0.0707,10.1375,0.0172,-0.0015,-0.0146
13.36,0.5418,-0.066,10.0466,0.1003,-0.0289,-0.0269
13.38,0.0788,-0.2318,9.7087,0.1592,-0.0821,-0.0848
13.4,0.2622,-0.0988,9.0976,0.3267,0.1015,-0.045
13.42,0.4511,-0.2446,9.1207,0.3004,0.1692,-0.0064
13.44,-0.1756,-0.1574,8.6761,0.06,-0.006,0.113
13.46,0.2253,0.2337,8.7766,-0.4235,-0.2492,0.223
13.48,-0.3167,-0.1893,8.3958,-1.0246,-0.463,0.2436
13.5,-1.1364,-0.2664,9.3905,-1.1848,-0.1312,0.243
13.52,-0.664,-0.4687,12.2385,-0.8124,0.3003,0.1778
13.54,0.3927,-0.6444,14.1127,0.0265,0.5744,-0.0262
13.56,1.3247,-0.6573,11.3792,0.8204,0.2117,-0.2009
13.58,1.4227,-0.2098,8.9501,1.1952,-0.2358,-0.2762
13.6,0.9698,-0.2589,8.5262,0.9971,-0.4013,-0.2572
13.62,0.5884,-0.0041,8.5769,0.4214,-0.2695,-0.1965
13.64,0.5364,-0.039,8.762,-0.0769,0.0407,-0.0824
13.66,0.2513,0.0875,9.0902,-0.3331,0.1222,0.0208
13.68,-0.0431,-0.3026,9.1355,-0.3596,0.0166,0.058
13.7,0.1029,-0.1078,9.2861,-0.1781,-0.0558,-0.018
13.72,0.1771,-0.0652,10.025,-0.0595,-0.0179,0.0431
13.74,0.8918,0.0276,10.0175,0.0036,-0.033,0.0113
13.76,0.6901,-0.0958,9.9241,0.0484,-0.0349,-0.0149
13.78,0.5313,0.0687,9.8118,-0.0414,-0.0301,-0.0242
13.8,0.5442,-0.3447,10.311,0.0468,-0.053,0.0546
13.82,0.4563,-0.4527,9.9792,0.0261,-0.0536,0.0491
13.84,0.7248,-0.2924,9.9086,0.211,-0.0081,0.0927
13.86,1.0266,-0.1316,9.7439,0.3589,0.1589,0.0704
13.88,0.745,-0.1592,9.3317,0.3999,0.1515,-0.0178
13.9,0.4147,-0.2401,8.9036,0.0913,0.077,-0.043
13.92,0.0794,-0.1992,8.5846,-0.4972,-0.2626,-0.1821
13.94,-0.4022,-0.0821,8.5984,-1.157,-0.4512,-0.3073
13.96,-1.0424,-0.0024,9.5875,-1.4023,-0.1932,-0.2952
13.98,-0.7961,0.4078,13.1044,-0.8807,0.3817,-0.1444
14.0,1.0241,0.6095,15.3734,0.0876,0.6573,-0.0012
14.02,1.4204,0.3956,11.8168,0.978,0.3048,0.2152
14.04,1.9266,0.2597,9.7292,1.4911,-0.2046,0.3013
14.06,1.0548,-0.155,8.5148,1.1702,-0.5064,0.3098
14.08,0.4063,-0.4437,8.9373,0.5087,-0.2806,0.2145
14.1,0.2825,-0.1116,9.0055,-0.08,0.0737,0.0983
14.12,0.0817,-0.2218,9.3409,-0.3401,0.1584,0.0094
14.14,0.1723,-0.4152,9.4262,-0.3201,0.0524,-0.0158
14.16,0.2618,0.0486,10.098,-0.1586,-0.0114,-0.0203
14.18,0.478,-0.182,10.096,-0.0517,-0.0165,-0.0101
14.2,0.6804,0.3758,10.3143,0.0327,0.0164,0.0036
14.22,0.3829,-0.2532,10.0219,-0.0083,-0.0072,-0.0009
14.24,0.389,-0.1024,10.3683,0.0113,-0.0438,0.0189
14.26,0.2884,0.06,10.2532,0.0139,-0.0829,-0.0235
14.28,0.7778,-0.127,9.7233,0.1646,-0.0119,-0.0825
14.3,0.5619,-0.014,9.3249,0.3123,0.0122,-0.0281
14.32,0.884,0.1562,9.1566,0.3465,0.1999,-0.0054
14.34,0.5009,0.3596,8.9932,0.1606,0.0272,0.0663
14.36,0.2517,0.2979,8.534,-0.418,-0.2243,0.2267
14.38,-0.069,0.1006,8.5967,-1.0337,-0.477,0.2936
14.4,-0.8779,-0.2463,9.2351,-1.3692,-0.3093,0.3152
14.42,-1.2052,-0.6192,11.8797,-1.0405,0.2729,0.2123
14.44,0.0532,-0.7841,14.1017,-0.0928,0.5735,-0.0187
14.46,1.713,-0.4114,12.9531,0.8856,0.3834,-0.1905
14.48,2.0937,-0.378,9.5665,1.3644,-0.1688,-0.3224
14.5,1.2875,-0.1949,8.6597,1.2224,-0.485,-0.2932
14.52,0.8801,0.3721,8.6732,0.6355,-0.3438,-0.2639
14.54,0.4461,-0.0438,8.8036,-0.0143,-0.0152,-0.0949
14.56,0.297,-0.0101,9.1204,-0.2944,0.1534,-0.0265
14.58,-0.1562,0.0344,9.3438,-0.2997,0.1084,0.0525
14.6,-0.0518,0.032,9.8104,-0.1617,0.0151,0.0267
14.62,-0.3267,-0.1358,9.5512,-0.0744,-0.0994,-0.0049
14.64,0.3957,0.1498,9.6809,0.0499,-0.0322,0.0248
14.66,0.1505,-0.5141,9.3699,0.0139,-0.0394,-0.0119
14.68,0.191,-0.4028,9.6862,-0.0057,0.0242,0.0399
14.7,0.2901,-0.4953,10.017,0.0091,-0.0597,-0.0047
14.72,0.3874,-0.1545,9.6392,0.0396,-0.0556,0.0035
14.74,0.4692,-0.2525,9.2896,0.1813,-0.059,0.0041
14.76,0.4294,-0.1696,9.4145,0.3675,0.1351,0.0377
14.78,0.4535,-0.1951,8.7529,0.3064,0.1753,-0.0811
14.8,0.0385,-0.4979,8.8546,0.0363,-0.0119,-0.0633
14.82,0.2476,-0.1791,8.7289,-0.5017,-0.2876,-0.1989
14.84,-0.4801,-0.3123,8.3026,-1.0767,-0.4878,-0.2671
14.86,-1.4457,-0.2,9.172,-1.258,-0.2055,-0.311
14.88,-0.4795,0.5566,12.1399,-0.7947,0.3145,-0.1498
14.9,0.0795,0.1722,13.5646,0.0059,0.597,0.0446
14.92,1.9647,0.5649,12.1558,0.915,0.2928,0.1762
14.94,1.3677,0.1242,8.9986,1.3082,-0.21,0.2728
14.96,0.8346,-0.107,8.6293,1.0464,-0.4679,0.2562
14.98,0.5251,-0.3965,8.655,0.4553,-0.2548,0.1962
15.0,0.2142,-0.4631,8.6275,-0.1176,0.0614,0.078
15.02,-0.0341,-0.505,8.9668,-0.3579,0.1371,0.0012
15.04,0.0568,-0.4133,9.1081,-0.3068,0.0773,-0.053
15.06,0.2142,-0.064,10.1637,-0.1429,0.0174,-0.0034
15.08,0.3547,-0.0412,10.2188,0.0184,-0.0276,-0.0355
15.1,0.2172,-0.0642,9.7255,-0.0213,-0.044,-0.0215
15.12,0.3563,-0.304,9.2567,-0.0242,-0.0835,-0.0414
15.14,0.381,-0.3709,9.8923,0.0393,-0.0801,-0.0267
15.16,0.4108,-0.1617,10.0209,0.119,-0.0337,-0.0662
15.18,0.3472,0.1427,9.4112,0.1929,0.0259,-0.0508
15.2,0.5769,-0.1431,9.4973,0.326,0.1516,-0.0138
15.22,0.3069,0.0036,9.2899,0.2955,0.1186,0.0183
15.24,0.2103,0.2361,8.8311,-0.0131,-0.0279,0.1209
15.26,-0.05,-0.05,8.7488,-0.5599,-0.3416,0.2119
15.28,-0.5384,-0.3856,8.602,-1.0446,-0.4378,0.3084
15.3,-0.9796,-0.3968,9.7986,-1.1558,-0.0671,0.2436
15.32,-0.4987,-0.5798,12.8966,-0.6228,0.371,0.1361
15.34,0.6072,-0.7014,13.7636,0.1788,0.5251,-0.0345
15.36,1.5787,-0.7158,11.4753,0.9423,0.2031,-0.163
15.38,1.1125,-0.6671,8.8799,1.1638,-0.2911,-0.2915
15.4,1.0175,0.0421,8.7507,0.8924,-0.4128,-0.2282
15.42,0.5455,0.055,9.071,0.3366,-0.1665,-0.1233
15.44,0.3937,0.2897,9.1944,-0.1021,0.0529,-0.0646
15.46,0.3463,0.0133,9.6128,-0.3128,0.1824,0.0162
15.48,0.0436,-0.011,9.6029,-0.2781,0.0682,0.051
15.5,0.358,0.0561,10.3315,-0.1106,0.0065,0.0523
15.52,0.559,-0.1347,10.1086,-0.0465,-0.0869,0.0827
15.54,0.3499,0.1486,10.1383,0.0286,-0.0266,0.0077
15.56,0.2154,-0.377,9.92,0.0146,-0.0184,-0.032
15.58,0.2166,-0.0515,9.7751,-0.0159,-0.0349,-0.0638
15.6,0.3015,-0.1415,9.8507,0.0099,-0.0415,0.0132
15.62,0.5309,-0.2364,10.475,0.0663,-0.0384,0.0093
15.64,0.5625,-0.1482,10.0855,0.1558,0.0198,0.0113
15.66,0.5421,-0.5376,9.3614,0.2843,0.0424,0.0139
15.68,0.2911,-0.3579,9.1205,0.3082,0.1396,-0.0335
15.7,0.2912,-0.3185,8.9101,0.0662,0.0232,-0.0739
15.72,0.384,-0.3028,8.6572,-0.4187,-0.2585,-0.2397
15.74,-0.1286,-0.1142,8.8083,-1.0097,-0.4421,-0.2657
15.76,-0.8082,0.0338,9.3177,-1.3177,-0.2397,-0.298
15.78,-0.9889,0.1322,11.7553,-0.9554,0.2615,-0.2021
15.8,0.4201,0.6408,14.1071,-0.0909,0.5636,-0.0193
15.82,1.2899,0.1047,11.9408,0.8353,0.3373,0.1761
15.84,1.9126,0.088,9.5115,1.2372,-0.1689,0.2809
15.86,1.1792,-0.1153,8.661,1.0314,-0.4187,0.24
15.88,0.5998,-0.1306,9.0462,0.5406,-0.2404,0.2317
15.9,0.5981,-0.2438,9.0241,-0.0097,0.055,0.1359
15.92,0.4468,-0.4665,9.2971,-0.3409,0.1152,0.0139
15.94,0.38,0.0752,9.9386,-0.2666,0.1225,-0.011
15.96,0.0037,-0.1449,9.8988,-0.1559,0.0356,-0.0323
15.98,0.502,-0.1275,10.093,-0.0205,-0.0397,0.0255
16.0,0.3245,0.0485,10.05,-0.0308,-0.0089,0.0168
16.02,0.0731,-0.2101,9.5477,0.0084,-0.0249,-0.0394
16.04,0.3686,-0.15,9.5882,-0.0488,0.0267,0.0073
16.06,0.4745,0.1353,10.0398,0.021,-0.0199,0.0243
16.08,0.3659,-0.0611,9.9875,0.0072,-0.059,-0.0097
16.1,0.4525,-0.1881,10.0048,0.1061,-0.0709,0.005
16.12,0.4036,-0.2886,9.5275,0.2224,0.0167,-0.0849
16.14,0.6878,0.0247,9.3237,0.3599,0.1418,0.0121
16.16,0.2578,0.0887,8.9857,0.2914,0.1498,0.0102
16.18,0.1469,-0.1141,8.7348,-0.1347,-0.109,0.0993
16.2,-0.1699,0.0598,8.6953,-0.6994,-0.3645,0.2512
16.22,-0.7181,-0.1168,8.6323,-1.2177,-0.4034,0.315
16.24,-1.3991,-0.5104,9.7744,-1.2301,-0.0292,0.2481
16.26,-0.2351,-0.5036,13.6268,-0.57,0.4963,0.1413
16.28,0.2473,-0.8941,12.886,0.3818,0.5403,-0.0918
16.3,1.3337,-0.674,10.7341,1.1133,0.0928,-0.2673
16.32,1.3401,-0.1113,8.7782,1.2902,-0.3189,-0.3021
16.34,0.6115,-0.2712,8.3923,0.8381,-0.3871,-0.2367
16.36,0.4442,-0.0304,8.7326,0.2505,-0.1211,-0.1385
16.38,0.0636,-0.0108,8.7591,-0.2353,0.0898,-0.0636
16.4,-0.2814,-0.2749,9.0078,-0.3658,0.1063,0.0105
16.42,-0.1213,-0.2202,9.5235,-0.2377,0.0452,0.0648
16.44,0.2219,0.1093,9.8306,-0.1136,-0.0264,0.0089
16.46,0.0918,-0.257,9.9265,-0.0816,-0.0735,0.0504
16.48,0.2455,-0.1105,9.8397,-0.0084,-0.0141,0.0432
16.5,0.305,-0.2117,9.5934,0.0292,-0.0038,0.0441
16.52,0.2169,-0.0182,9.8988,0.0105,-0.0148,0.0347
16.54,0.5822,-0.0913,9.8162,0.1252,-0.0219,0.0872
16.56,0.2137,-0.308,8.9904,0.2659,0.0805,0.0095
16.58,0.1766,-0.4305,8.7769,0.3219,0.1601,-0.0172
16.6,0.4939,-0.2843,8.9183,0.2039,0.0933,-0.035
16.62,0.3467,-0.6745,8.2743,-0.3366,-0.2352,-0.1989
16.64,-0.4687,-0.4634,8.0667,-1.0505,-0.4991,-0.3006
16.66,-1.0439,-0.0755,8.8279,-1.4322,-0.3306,-0.3373
16.68,-1.1616,0.2324,11.1172,-1.1116,0.2032,-0.2329
16.7,-0.1174,0.6064,13.9946,-0.2419,0.6247,-0.0496
16.72,1.7104,0.755,13.3693,0.7282,0.4078,0.0775
16.74,1.7458,0.0946,9.8506,1.3323,-0.0773,0.2969
16.76,1.1415,-0.1005,8.2163,1.2168,-0.4544,0.3116
16.78,0.542,-0.304,8.4172,0.6516,-0.3597,0.2157
16.8,0.4523,-0.2605,8.6754,0.0313,-0.0489,0.1169
16.82,-0.0678,-0.2973,9.0354,-0.296,0.1772,0.0425
16.84,0.2568,-0.4151,9.2714,-0.3456,0.0715,-0.0235
16.86,0.0809,-0.0437,9.4957,-0.2374,-0.0195,-0.0367
16.88,0.2911,0.0823,10.2693,-0.0577,-0.0111,-0.0288
16.9,0.3395,-0.0666,9.8411,-0.0338,-0.0385,0.0402
16.92,0.4156,-0.1797,9.7688,0.0165,-0.0126,-0.0037
16.94,0.3512,-0.0555,9.938,0.0308,-0.0222,0.009
16.96,0.4724,-0.2372,9.8441,0.0054,-0.0073,0.0195
16.98,0.4186,-0.0514,10.0566,0.0259,-0.0914,-0.0291
17.0,0.7493,0.0165,9.9406,0.112,-0.0438,-0.0548
17.02,0.5588,0.105,9.7288,0.3008,0.0313,-0.0931
17.04,0.2817,-0.06,9.022,0.3183,0.1569,-0.0527
17.06,0.3216,0.2144,9.3183,0.2109,0.1252,0.0421
17.08,0.6958,0.5425,9.2239,-0.206,-0.1168,0.1908
17.1,-0.1489,0.1353,8.7454,-0.9643,-0.4959,0.3103
17.12,-0.6759,-0.3596,8.8628,-1.3995,-0.3799,0.3371
17.14,-0.9276,-0.5706,11.5004,-1.1535,0.1485,0.2588
17.16,-0.2334,-0.9211,13.9554,-0.3625,0.6034,0.0333
17.18,1.6291,-0.3111,13.7223,0.6968,0.484,-0.1402
17.2,2.1354,-0.5115,10.3235,1.3654,-0.0482,-0.2299
17.22,1.3934,-0.2352,8.9407,1.3033,-0.4326,-0.3164
17.24,0.8801,0.2828,8.7861,0.763,-0.3748,-0.2565
17.26,0.5158,0.3177,9.0661,0.083,-0.0425,-0.145
17.28,0.0005,-0.2694,8.8263,-0.3412,0.1369,-0.0723
17.3,0.3621,-0.0327,9.8312,-0.3755,0.1911,-0.0053
17.32,0.4995,0.2209,10.4281,-0.1939,0.0843,0.0457
17.34,0.4895,0.12,10.115,-0.0754,-0.032,-0.0004
17.36,0.4612,0.2235,10.2888,-0.0012,-0.0063,0.051
17.38,0.5756,0.0125,10.3478,0.0256,-0.0343,-0.0039
17.4,0.4383,0.114,10.1758,0.0174,0.0017,0.0524
17.42,0.4789,0.0359,9.9891,-0.0131,-0.0014,-0.0077
17.44,0.4833,0.0235,9.9887,-0.0173,-0.0204,0.0665
17.46,0.2359,0.0127,9.484,0.0591,-0.0601,0.0321
17.48,1.1479,0.2915,10.2554,0.2895,0.1175,0.0112
17.5,0.7921,0.1644,9.8597,0.3991,0.18,-0.0021
17.52,0.2727,-0.4216,9.0921,0.2385,0.1167,-0.0315
17.54,0.4429,-0.2107,8.9939,-0.121,-0.0922,-0.1293
17.56,0.1516,-0.1785,8.9794,-0.7491,-0.3735,-0.2436
17.58,-0.7828,0.1564,8.6972,-1.293,-0.3686,-0.3016
17.6,-1.2298,0.0489,10.1295,-1.2121,-0.0174,-0.2575
17.62,-0.7218,0.3884,12.9402,-0.5253,0.4725,-0.1285
17.64,1.3958,0.6145,14.384,0.5081,0.5439,0.0759
17.66,1.3873,-0.0572,10.3012,1.1708,0.0378,0.2293
17.68,0.7768,-0.2131,8.0661,1.1486,-0.4085,0.3179
17.7,0.489,-0.1957,8.5403,0.7763,-0.4294,0.2268
17.72,0.2783,-0.3443,8.7183,0.1925,-0.0898,0.1299
17.74,0.1471,-0.3274,9.052,-0.2355,0.1038,0.0685
17.76,0.4349,-0.0485,9.4852,-0.3136,0.1701,-0.0184
17.78,-0.1487,-0.0483,9.7869,-0.192,0.0768,-0.02
17.8,0.2509,-0.1667,9.8245,-0.133,-0.0537,-0.0628
17.82,0.2417,-0.0111,9.7495,-0.0099,0.0129,-0.013
17.84,0.5639,-0.1641,9.8585,0.0127,0.068,-0.0009
17.86,0.0047,-0.392,9.6844,-0.0029,-0.0079,0.0064
17.88,0.3559,0.098,9.7085,0.0115,-0.0045,-0.0085
17.9,-0.0227,-0.1912,9.8539,-0.0514,-0.0563,-0.0354
17.92,0.4408,-0.2951,9.8233,0.1083,-0.0324,-0.0326
17.94,0.3939,0.0376,9.6234,0.3147,0.0717,-0.0222
17.96,0.1958,-0.058,8.8424,0.37,0.1727,-0.0685
17.98,0.223,0.2057,8.6003,0.2241,0.1164,0.0489
18.0,0.5139,-0.2048,8.4956,-0.2334,-0.1459,0.1745
18.02,-0.0971,-0.185,8.2833,-0.8551,-0.4474,0.266
18.04,-1.0688,-0.2602,8.3299,-1.4047,-0.4401,0.3016
18.06,-1.264,-0.3549,11.0252,-1.2557,0.0788,0.282
18.08,-0.9437,-0.9249,12.765,-0.5175,0.5672,0.0861
18.1,1.3487,-0.6818,13.9838,0.5487,0.5945,-0.1425
18.12,1.6818,-0.4416,10.3859,1.3025,0.0921,-0.2604
18.14,1.4965,-0.2606,8.6797,1.3758,-0.3961,-0.3529
18.16,0.774,-0.1165,8.491,0.8448,-0.3945,-0.2311
18.18,0.4282,0.2774,8.7028,0.2106,-0.0807,-0.1164
18.2,0.1876,0.2469,8.9169,-0.2952,0.1722,-0.0232
18.22,-0.0283,0.0386,9.2218,-0.3728,0.1829,0.0333
18.24,-0.1469,-0.2517,9.5611,-0.2823,0.0744,0.0608
18.26,0.055,-0.0871,9.6208,-0.105,-0.0185,-0.0118
18.28,-0.024,-0.3649,9.5678,-0.0854,-0.0094,0.0462
18.3,0.2071,-0.0012,9.8306,-0.0055,-0.036,0.0182
18.32,0.2187,0.0066,9.6504,-0.0016,0.0488,0.0087
18.34,0.2717,-0.251,9.6683,-0.0095,-0.0318,0.0285
18.36,0.4575,-0.1516,10.1499,-0.0068,-0.0012,0.045
18.38,0.5287,0.0613,10.2141,0.0837,-0.0555,0.0123
18.4,0.5629,-0.255,9.8895,0.2085,0.0244,0.0693
18.42,0.4352,-0.2668,9.555,0.3244,0.0951,0.0202
18.44,0.3689,-0.2943,9.1767,0.328,0.1496,-0.0208
18.46,0.403,0.0149,9.2273,0.074,0.0371,-0.1092
18.48,0.3506,-0.0844,9.2412,-0.4905,-0.2757,-0.1777
18.5,-0.2015,-0.0543,8.7222,-1.1417,-0.4496,-0.293
18.52,-0.5463,0.0519,9.5003,-1.3096,-0.1781,-0.3169
18.54,-0.6348,-0.002,11.1979,-0.887,0.3682,-0.1653
18.56,0.4925,0.3051,12.8203,-0.0022,0.6241,0.0014
18.58,1.3477,0.2805,11.2348,0.9,0.3188,0.1755
18.6,1.253,-0.0594,9.409,1.2906,-0.2482,0.2807
18.62,0.8906,-0.0772,9.1089,1.0523,-0.4589,0.2768
18.64,0.5905,-0.2847,9.2982,0.4287,-0.2184,0.2155
18.66,0.5212,-0.2827,9.4432,-0.1146,0.0721,0.0775
18.68,0.3285,-0.2893,9.2382,-0.3494,0.1128,-0.0645
18.7,0.454,-0.1735,9.7219,-0.2797,0.1093,-0.0454
18.72,0.1081,-0.2458,9.7843,-0.1743,-0.0239,-0.006
18.74,0.2458,0.075,10.148,-0.0513,-0.0812,0.0023
18.76,0.24,-0.424,9.9754,-0.0004,-0.0203,-0.003
18.78,0.6224,0.1212,10.1329,-0.0012,0.0307,0.0206
18.8,0.4244,-0.3648,10.1461,0.0056,0.0363,-0.009
18.82,0.4244,0.171,10.2009,0.0196,-0.0252,0.0362
18.84,0.6917,0.061,10.3344,0.062,-0.0387,-0.0108
18.86,0.5691,-0.1358,9.8807,0.1943,0.0189,-0.0589
18.88,0.4953,-0.2217,9.5272,0.2569,0.0752,0.0001
18.9,0.724,-0.1196,9.4188,0.3515,0.1831,-0.0126
18.92,0.2052,0.1701,8.9324,0.1194,0.0763,0.0571
18.94,0.0252,0.1163,8.8249,-0.4598,-0.2778,0.1634
18.96,-0.2886,-0.1188,8.4504,-1.0797,-0.4777,0.2725
18.98,-1.3047,-0.6348,9.0903,-1.37,-0.2743,0.2886
19.0,-1.2034,-0.6814,11.5867,-1.0211,0.3017,0.2221
19.02,0.4252,-0.5965,14.3877,-0.0831,0.6122,0.0274
19.04,1.4795,-0.6584,12.5498,0.8034,0.3373,-0.2159
19.06,1.8684,-0.3601,9.6585,1.3653,-0.1049,-0.2414
19.08,1.2279,0.084,8.5414,1.1361,-0.4064,-0.3149
19.1,0.5155,0.184,8.5373,0.5341,-0.3081,-0.2407
19.12,0.3745,-0.0241,8.9442,-0.0908,0.017,-0.0918
19.14,0.1676,0.1522,9.0894,-0.3163,0.1593,-0.0401
19.16,-0.232,-0.0874,9.1373,-0.3542,0.123,0.0345
19.18,0.2796,0.1478,9.9971,-0.2156,0.0197,0.0437
19.2,-0.1461,-0.4619,9.6657,-0.1173,-0.0387,0.0071
19.22,0.5014,-0.0347,9.8128,0.0102,-0.0168,-0.022
19.24,0.4153,-0.17,9.8035,-0.0307,-0.0237,0.0067
19.26,0.319,0.1004,9.5181,-0.0366,-0.0286,0.0353
19.28,0.1756,-0.136,9.5706,-0.033,-0.0199,0.0191
19.3,0.0785,-0.2893,9.5837,-0.0562,-0.0647,0.0144
19.32,0.0975,-0.0699,9.7471,0.0387,0.0257,-0.0023
19.34,0.3582,-0.2758,9.5424,0.1414,0.0333,-0.0188
19.36,0.4801,-0.3427,9.3242,0.3211,0.141,-0.003
19.38,0.3693,-0.734,9.0861,0.325,0.1998,0.0215
19.4,0.3593,-0.1278,8.9681,0.0233,0.0563,-0.0736
19.42,-0.219,-0.2853,8.7057,-0.5721,-0.2812,-0.1976
19.44,-0.4738,-0.1673,8.2652,-1.0955,-0.4319,-0.226
19.46,-0.6297,0.2018,9.4681,-1.2329,-0.0851,-0.2589
19.48,-0.9361,0.2621,12.1912,-0.7897,0.3634,-0.1689
19.5,0.5237,0.2546,13.8464,0.094,0.5756,0.0041
19.52,1.5081,0.3812,11.0658,0.9463,0.2862,0.2081
19.54,1.2165,0.0199,8.9966,1.2558,-0.214,0.2771
19.56,0.6517,-0.3261,8.3374,0.9641,-0.4324,0.3238
19.58,0.431,-0.0345,8.8817,0.4151,-0.1951,0.1985
19.6,0.1498,-0.6586,9.0056,-0.0854,0.0895,0.0686
19.62,0.0654,-0.4314,9.3031,-0.361,0.163,0.0121
19.64,-0.1761,-0.346,9.1866,-0.2916,0.0581,-0.0698
19.66,0.1294,-0.4461,9.8135,-0.1401,0.0356,-0.0127
19.68,0.1183,-0.0711,9.8089,-0.0277,-0.0235,-0.0219
19.7,0.1404,-0.1703,9.6396,0.0018,0.0036,-0.0491
19.72,0.1081,-0.1417,9.5023,-0.0466,0.0134,-0.0058
19.74,0.3741,-0.0965,9.8111,0.0214,0.0266,0.014
19.76,0.404,-0.2919,9.7637,-0.0133,-0.0185,0.0277
19.78,0.0945,-0.1202,9.4637,-0.031,-0.0773,-0.0553
19.8,0.6516,-0.0736,10.0881,0.2191,0.0244,-0.0306
19.82,0.5542,0.1639,9.6345,0.3521,0.1643,0.0067
19.84,0.5427,-0.0765,9.3517,0.3215,0.2104,0.025
19.86,-0.1429,-0.1392,8.9593,0.0628,0.0674,0.0521
19.88,-0.0597,-0.078,8.6083,-0.4994,-0.2622,0.1939
19.9,-0.3355,-0.1315,8.4046,-1.0925,-0.4436,0.2715
19.92,-1.1009,-0.2394,9.1239,-1.3236,-0.2264,0.2733
19.94,-1.1365,-0.4391,11.5592,-0.9539,0.3276,0.1822
19.96,0.197,-0.636,14.244,-0.0581,0.5895,0.0114
19.98,0.9749,-0.7632,11.708,0.8394,0.3282,-0.1756
20.0,1.601,-0.698,9.3936,1.3222,-0.192,-0.3265
20.02,0.9192,-0.2254,8.5985,1.0313,-0.4605,-0.2758
20.04,0.271,0.0567,8.6738,0.4798,-0.2512,-0.1893
20.06,0.3449,0.3121,9.1567,-0.0845,0.0618,-0.0543
20.08,0.3585,-0.1885,9.4322,-0.3593,0.1931,-0.0448
20.1,0.017,-0.2358,9.2718,-0.3921,0.0911,-0.0605
20.12,0.3338,-0.1464,9.9733,-0.2363,0.0098,0.0217
20.14,0.1325,0.1624,10.4481,-0.0239,-0.019,0.081
20.16,0.4075,0.0192,10.0806,0.0268,-0.0201,0.0488
20.18,0.3719,-0.1975,10.1434,0.0264,0.0,-0.0151
20.2,0.3175,0.0802,9.8462,-0.0296,0.0017,-0.0059
20.22,0.3883,-0.2652,10.199,0.0283,-0.0256,0.0007
20.24,0.473,-0.2035,9.8359,0.0819,-0.0363,0.0413
20.26,0.6726,-0.3076,9.9125,0.2149,0.0611,0.0185
20.28,0.4143,-0.2712,9.491,0.298,0.1351,-0.0193
20.3,0.3363,-0.4285,9.2795,0.3133,0.1574,-0.0149
20.32,0.2168,-0.5132,8.6512,-0.0708,-0.02,-0.1444
20.34,-0.0828,-0.1003,8.403,-0.6549,-0.3852,-0.2321
20.36,-0.2102,0.1018,8.8596,-1.1476,-0.3542,-0.2941
20.38,-1.0482,0.179,9.9849,-1.2771,-0.0401,-0.2801
20.4,-0.965,0.1222,12.7164,-0.681,0.4608,-0.1499
20.42,0.8846,0.8534,14.2848,0.2517,0.5832,0.0307
20.44,1.6625,0.3215,10.7857,1.0392,0.1677,0.1791
20.46,1.5544,0.0642,8.7471,1.2747,-0.3031,0.2803
20.48,0.7907,-0.344,9.1747,0.9019,-0.3711,0.3376
20.5,0.2488,-0.3481,8.8508,0.2691,-0.2057,0.1639
20.52,0.1912,-0.4743,9.0593,-0.2158,0.0935,0.0589
20.54,0.1355,-0.526,9.3008,-0.339,0.1943,-0.0088
20.56,0.2276,-0.0894,9.6503,-0.3348,0.1037,-0.0435
20.58,0.1401,-0.3379,9.9612,-0.1642,-0.0692,-0.0978
20.6,0.3598,0.2133,10.1544,0.0022,-0.016,0.0155
20.62,0.2403,-0.1584,9.8962,0.0164,0.0229,-0.0338
20.64,0.3429,-0.1585,9.6323,0.0545,0.0333,0.0157
20.66,0.3366,-0.1505,9.7217,-0.0395,0.0054,0.0198
20.68,0.4631,-0.1167,9.9525,-0.0046,0.041,0.0198
20.7,-0.123,0.0464,9.9629,-0.0384,0.0227,-0.0115
20.72,0.4117,-0.2047,10.0392,-0.0218,-0.0192,0.0035
20.74,0.5142,-0.098,10.1313,0.1039,-0.0071,-0.0201
20.76,0.5297,-0.0955,9.7453,0.256,0.0714,-0.0244
20.78,0.4082,-0.2685,9.424,0.362,0.1634,0.0079
20.8,0.3381,0.3803,8.9134,0.2404,0.156,0.074
20.82,-0.0128,0.1525,8.2874,-0.282,-0.1493,0.1436
20.84,0.1739,-0.0031,8.7991,-0.8506,-0.3823,0.2337
20.86,-0.6664,-0.3759,8.3303,-1.2658,-0.3672,0.275
20.88,-0.9476,-0.6661,11.0349,-1.1939,0.1447,0.2529
20.9,-0.5824,-0.8993,13.3137,-0.411,0.5606,0.0769
20.92,1.3013,-0.5375,13.2391,0.6283,0.5158,-0.087
20.94,1.7411,-0.6245,10.3389,1.252,0.0059,-0.255
20.96,1.3291,-0.075,8.4297,1.2572,-0.415,-0.2892
20.98,0.4816,-0.0809,8.4323,0.735,-0.3368,-0.2249
21.0,0.46,-0.0365,8.9676,0.1254,-0.0392,-0.1346
21.02,0.1103,0.2394,9.2006,-0.2467,0.1878,-0.0257
21.04,-0.0443,-0.0602,9.1785,-0.3555,0.2003,0.0742
21.06,-0.0545,-0.0713,9.2896,-0.2749,0.0216,-0.0031
21.08,0.2393,-0.2027,10.2824,-0.0696,0.02,0.0514
21.1,0.2062,-0.139,9.9369,0.0407,0.0205,0.0755
21.12,0.1965,-0.13,9.7396,-0.0254,-0.0239,-0.0224
21.14,0.291,-0.1074,9.7649,-0.0219,-0.0175,-0.0091
21.16,0.0981,-0.0163,9.8127,-0.077,0.0209,0.012
21.18,0.3682,-0.1619,9.8066,0.0029,-0.0165,0.0502
21.2,0.2067,-0.2994,9.9768,0.0995,0.0305,0.0493
21.22,0.6644,0.0434,9.6623,0.2162,0.0732,0.0729
21.24,0.2505,-0.4913,8.914,0.2501,0.1527,0.0149
21.26,0.3769,-0.4485,8.9199,0.1799,0.1585,-0.0322
21.28,0.1148,-0.476,8.6626,-0.2014,-0.0569,-0.1222
21.3,-0.2123,-0.0993,8.8469,-0.7161,-0.3866,-0.2078
21.32,-0.5375,0.1058,8.853,-1.1678,-0.3231,-0.2674
21.34,-0.8788,0.1242,10.6284,-1.1001,0.0695,-0.244
21.36,-0.7615,0.1648,12.835,-0.5078,0.4995,-0.0864
21.38,0.4625,0.2,12.9692,0.4093,0.5021,0.0934
21.4,1.662,0.4886,10.7515,1.07,0.0842,0.2462
21.42,0.9558,0.0101,8.6002,1.0964,-0.3243,0.2904
21.44,0.7484,-0.1526,8.7532,0.7228,-0.3886,0.2359
21.46,0.4813,-0.0846,8.6182,0.1441,-0.0918,0.1485
21.48,0.1384,-0.2977,8.8561,-0.2898,0.119,0.0262
21.5,0.0374,-0.313,9.2069,-0.3612,0.1277,-0.0198
21.52,0.0892,-0.2415,9.805,-0.2202,0.0526,-0.0437
21.54,0.0323,0.0689,9.9091,-0.0897,-0.0645,-0.0437
21.56,0.2394,-0.1966,9.8219,-0.122,-0.0054,-0.0314
21.58,0.4799,-0.1719,10.268,0.0395,0.0147,-0.0257
21.6,0.3192,0.1082,10.2116,-0.0035,0.0224,-0.0043
21.62,0.3062,0.2053,10.2718,0.0227,-0.0023,-0.0005
21.64,0.66,-0.2128,10.031,0.039,-0.0043,-0.0699
21.66,0.5207,0.1728,9.8798,0.2237,0.0049,0.0083
21.68,1.0773,0.0777,9.6256,0.3601,0.1928,-0.0299
21.7,0.2375,-0.013,9.109,0.2028,0.1524,0.0625
21.72,1.2903,0.5889,9.9638,-0.0462,-0.0406,0.1466
21.74,0.3502,0.0883,8.9581,-0.7457,-0.3774,0.2554
21.76,-0.2419,-0.0087,9.229,-1.2129,-0.3294,0.2904
21.78,-1.5984,-1.0853,9.985,-1.2845,0.074,0.2149
21.8,-0.0704,-0.5134,14.0281,-0.513,0.4973,0.0934
21.82,0.8428,-0.692,13.9269,0.4719,0.5503,-0.1133
21.84,1.1085,-0.8443,9.4798,1.0476,-0.0021,-0.2754
21.86,1.6912,0.2563,9.6713,1.3958,-0.287,-0.3408
21.88,1.1708,0.1489,9.0994,0.827,-0.3397,-0.246
21.9,0.1154,0.2223,8.8352,0.1091,-0.1233,-0.1336
21.92,0.1928,-0.0574,9.3666,-0.2788,0.1805,-0.0128
21.94,0.0681,0.0254,9.1528,-0.4428,0.1371,0.0019
21.96,0.4054,0.3102,10.2313,-0.2079,0.1046,0.0342
21.98,-0.2892,-0.5161,9.0433,-0.2404,-0.0934,0.0903
22.0,0.1615,-0.0038,10.0201,-0.0368,-0.0168,0.0266
22.02,0.5361,0.1937,10.3496,-0.0131,0.0229,0.0051
22.04,-0.0345,-0.5907,9.2997,-0.0466,-0.0681,0.0406
22.06,0.4819,-0.0315,10.277,0.1299,0.0122,0.0348
22.08,0.9071,0.0703,10.1394,0.2631,0.0465,0.0344
22.1,0.4811,-0.2241,9.6778,0.422,0.1763,0.0599
22.12,0.672,-0.0275,9.9326,0.3068,0.207,-0.054
22.14,0.2801,-0.5458,8.7337,-0.1325,-0.0384,-0.154
22.16,0.2304,-0.2993,9.0249,-0.6822,-0.3563,-0.179
22.18,-0.6744,-0.2653,8.629,-1.2955,-0.4008,-0.277
22.2,-1.5104,0.0718,10.233,-1.2792,0.0134,-0.237
22.22,-0.364,0.6107,14.2734,-0.6105,0.5558,-0.1163
22.24,0.6642,-0.0491,13.456,0.4364,0.6444,0.126
22.26,1.8029,0.1516,11.0613,1.1576,0.1586,0.2126
22.28,1.5975,-0.1921,8.7827,1.3143,-0.3548,0.3265
22.3,0.5132,-0.2214,8.4138,0.8447,-0.4044,0.2582
22.32,0.2826,-0.3099,8.6328,0.1828,-0.1538,0.1665
22.34,0.1324,-0.0717,9.1269,-0.2332,0.2066,0.0297
22.36,-0.2775,-0.3289,8.9102,-0.3684,0.1709,-0.0236
22.38,0.0222,-0.1678,9.6077,-0.2888,0.0797,-0.0788
22.4,0.2933,-0.2235,9.9087,-0.1201,0.0334,-0.032
22.42,0.3722,0.0105,10.1632,-0.0531,0.0111,0.012
22.44,0.3548,-0.4382,9.8075,0.0071,0.0034,-0.0044
22.46,0.1671,-0.2647,9.8354,0.001,0.0715,-0.0297
22.48,0.5557,0.0563,9.9345,0.0546,-0.0393,0.0454
22.5,0.4862,0.0073,9.7073,0.1458,0.0359,-0.0476
22.52,0.5594,-0.2485,9.6401,0.2958,0.1247,-0.0172
22.54,0.3991,0.1053,9.123,0.3035,0.1569,0.0058
22.56,0.1071,0.0064,8.8234,0.0687,0.0547,0.0792
22.58,-0.0949,0.0226,8.385,-0.47,-0.2237,0.1504
22.6,-0.68,-0.0174,8.0036,-1.0087,-0.4104,0.2392
22.62,-0.9974,-0.4781,8.8821,-1.263,-0.1777,0.2711
22.64,-1.03,-0.5865,11.7715,-0.9302,0.3264,0.1671
22.66,-0.0987,-0.6982,13.9001,-0.0907,0.5789,0.0226
22.68,1.3746,-0.4646,12.4638,0.7556,0.376,-0.1973
22.7,1.7508,-0.4506,9.5435,1.1949,-0.1269,-0.2601
22.72,0.985,-0.1745,8.3855,1.0188,-0.3886,-0.2441
22.74,0.3768,-0.0404,8.5964,0.4628,-0.2404,-0.176
22.76,0.0712,-0.2861,8.8069,-0.0521,0.0584,-0.0912
22.78,-0.2278,0.0065,8.8689,-0.3756,0.1616,-0.0278
22.8,-0.3223,-0.3608,9.0089,-0.3211,0.0612,-0.0033
22.82,0.0628,-0.3063,9.6448,-0.1805,0.0181,0.03
22.84,0.1573,0.0141,10.1209,-0.0577,0.0219,0.0278
22.86,0.1153,-0.1536,9.8406,0.0014,0.0097,0.0073
22.88,0.1328,-0.1699,9.8486,0.006,0.0475,0.0244
22.9,0.3085,-0.2756,9.996,-0.0018,0.0234,0.0457
22.92,0.2902,-0.3793,9.9171,0.0268,-0.0096,0.0559
22.94,0.3889,0.0255,9.6731,0.1009,-0.023,0.0486
22.96,0.3625,-0.3714,9.5507,0.2506,0.076,-0.0076
22.98,0.5182,-0.2013,9.3304,0.3494,0.2045,-0.0047
23.0,0.8354,-0.1802,9.2538,0.1787,0.1112,-0.0452
23.02,0.1426,-0.0399,8.9297,-0.281,-0.1343,-0.1792
23.04,-0.4199,-0.0895,8.4349,-0.9325,-0.4335,-0.2612
23.06,-1.0196,-0.0426,8.6591,-1.2903,-0.3279,-0.2679
23.08,-0.8817,0.4356,11.2425,-1.0838,0.1681,-0.2288
23.1,-0.17,0.4262,14.1113,-0.3343,0.5603,-0.0369
23.12,1.2399,0.3826,12.9917,0.6123,0.486,0.13
23.14,1.6956,0.1493,10.1205,1.1787,-0.0256,0.2396
23.16,1.3776,-0.0988,8.5467,1.1806,-0.3533,0.2987
23.18,0.6717,-0.4169,8.795,0.6542,-0.3413,0.2788
23.2,0.3045,-0.5343,8.4937,0.0185,-0.0633,0.1014
23.22,0.0671,-0.0866,9.4738,-0.2647,0.1855,0.0393
23.24,0.0918,-0.3856,9.2002,-0.3924,0.156,0.0035
23.26,0.002,-0.4974,9.8098,-0.2384,0.0101,-0.0409
23.28,0.3939,-0.0624,10.411,-0.0935,-0.0301,-0.0151
23.3,0.3581,0.0417,10.4123,-0.0261,-0.0103,0.0205
23.32,0.3833,0.067,9.9779,0.0067,-0.0136,0.017
23.34,-0.1782,0.075,9.7337,-0.0297,-0.0364,-0.0366
23.36,0.4087,0.0218,10.0125,-0.0234,0.0055,-0.0222
23.38,0.5732,-0.2476,9.969,-0.0588,-0.01,0.0331
23.4,0.2757,-0.1404,10.1393,-0.0297,0.0023,-0.0248
23.42,0.5394,0.0625,10.151,0.0781,-0.0322,-0.0561
23.44,0.7402,-0.0284,9.6253,0.2864,0.0839,-0.0447
23.46,0.3793,0.1364,9.4454,0.3401,0.1674,-0.0698
23.48,0.4789,0.2951,8.9175,0.1901,0.1217,0.0852
23.5,0.4099,0.2482,8.6923,-0.2197,-0.0836,0.1534
23.52,-0.2114,0.08,8.6556,-0.8847,-0.4415,0.2302
23.54,-1.1047,-0.2827,8.6214,-1.3794,-0.3856,0.2988
23.56,-1.28,-0.4069,11.0329,-1.3318,0.1037,0.2581
23.58,-0.4261,-0.9666,13.8144,-0.5506,0.5952,0.0641
23.6,1.4089,-0.2947,14.5929,0.5397,0.6031,-0.1138
23.62,1.9064,-0.6735,10.6052,1.2974,0.0852,-0.2526
23.64,1.5044,-0.5107,8.5901,1.326,-0.4285,-0.3554
23.66,1.0103,-0.0083,8.498,0.8277,-0.4327,-0.2458
23.68,0.4609,0.2332,8.6122,0.1421,-0.0811,-0.1173
23.7,0.4438,0.072,9.3278,-0.2187,0.1683,-0.0045
23.72,-0.2571,0.0358,9.6076,-0.3721,0.1564,0.0158
23.74,-0.1694,0.118,9.6448,-0.3036,0.1162,0.0526
23.76,0.0742,0.0204,10.3885,-0.1151,-0.0251,0.0578
23.78,0.2265,-0.0727,9.8092,-0.0528,-0.041,-0.0247
23.8,0.5975,-0.0138,10.0514,0.0146,0.027,0.0449
23.82,0.2638,-0.1553,9.7109,-0.0147,0.0129,-0.0018
23.84,0.183,-0.1993,9.7165,-0.0792,0.0078,0.0305
23.86,0.2527,-0.1589,10.278,0.0414,0.0138,0.0013
23.88,0.6441,-0.2463,10.0542,0.1021,0.0248,0.0316
23.9,0.7048,-0.2471,9.5766,0.2348,0.1134,0.0444
23.92,0.517,-0.4357,9.1363,0.2143,0.1435,-0.0068
23.94,0.1811,-0.6015,9.0287,0.107,0.0676,-0.0252
23.96,0.2071,-0.294,8.8819,-0.3221,-0.1745,-0.1193
23.98,-0.4709,-0.3968,8.2284,-0.8295,-0.3583,-0.2016
24.0,-0.9409,-0.0606,8.9997,-1.1024,-0.2017,-0.2705
24.02,-0.6244,0.1883,11.7966,-0.8054,0.2145,-0.1664
24.04,-0.4251,0.1988,12.4969,-0.1903,0.4828,-0.0757
24.06,1.4931,0.3428,12.2802,0.654,0.3232,0.1558
24.08,1.4702,0.3019,9.5032,1.0361,-0.1093,0.2479
24.1,0.5363,-0.0858,8.4594,0.8956,-0.3445,0.2533
24.12,0.3856,-0.2717,8.927,0.4278,-0.2381,0.1634
24.14,0.1014,-0.4719,8.7022,-0.0515,0.0502,0.1185
24.16,0.0907,-0.2871,9.3472,-0.2831,0.183,0.0563
24.18,-0.0806,-0.4302,9.2997,-0.2695,0.0848,-0.0077
24.2,-0.2268,-0.2782,9.4355,-0.195,0.0561,-0.0293
24.22,0.4876,-0.2788,9.8401,-0.0574,-0.0043,0.0146
24.24,0.1521,-0.3251,9.6649,-0.0025,-0.0217,-0.0375
24.26,-0.0648,-0.2783,9.4926,-0.0428,0.0373,0.0241
24.28,-0.0182,0.0442,9.5755,0.0156,0.0157,-0.0372
24.3,0.2523,-0.2195,9.4949,-0.0636,-0.0293,-0.0403
24.32,0.6351,-0.1254,10.0463,0.031,0.0094,0.0139
24.34,0.22,-0.084,9.9964,0.0089,-0.0202,-0.0352
24.36,0.3327,-0.1813,9.7549,0.1136,0.0081,-0.0719
24.38,0.2458,0.0021,9.0216,0.2323,0.1195,-0.0634
24.4,0.5781,-0.0627,9.0127,0.2416,0.1709,-0.0048
24.42,-0.0891,0.1057,8.9896,0.0482,-0.0155,0.1217
24.44,0.247,0.0137,8.7671,-0.4714,-0.2273,0.1782
24.46,-0.7658,-0.3045,8.4785,-1.0647,-0.3874,0.2522
24.48,-1.4824,-0.6947,9.2061,-1.2362,-0.1545,0.2843
24.5,-1.0394,-0.8527,11.7638,-0.8508,0.3506,0.1404
24.52,0.3952,-1.0582,14.0664,0.0025,0.534,-0.0118
24.54,1.6302,-0.4554,12.1318,0.9011,0.2722,-0.1752
24.56,1.642,-0.4504,9.3953,1.2518,-0.1616,-0.2554
24.58,0.9876,-0.479,8.5244,0.9202,-0.4126,-0.2665
24.6,0.5011,0.1257,8.7979,0.3987,-0.2267,-0.165
24.62,0.0456,-0.094,8.7719,-0.1265,0.0574,-0.0792
24.64,0.0308,0.1157,9.2896,-0.3576,0.2288,-0.0499
24.66,-0.2154,-0.1359,9.4955,-0.3659,0.1315,-0.028
24.68,0.0747,0.1617,10.1417,-0.2031,0.0462,0.036
24.7,0.3223,-0.251,10.5166,-0.0042,0.0373,0.0638
24.72,0.4016,-0.1118,10.2145,-0.0129,0.0109,0.0094
24.74,0.2209,-0.0057,9.7861,-0.0337,-0.0248,0.0023
24.76,0.1011,-0.2559,10.0298,-0.0043,-0.0156,0.0223
24.78,0.6417,0.0961,10.4954,0.146,0.0307,0.0495
24.8,0.1905,-0.2849,9.7804,0.1696,0.0775,0.046
24.82,0.4155,-0.1342,9.912,0.3365,0.1752,0.0298
24.84,0.44,-0.1794,9.6047,0.243,0.1565,-0.0361
24.86,0.4526,0.022,9.2465,-0.1322,-0.0653,-0.1555
24.88,0.0082,-0.2426,9.1157,-0.7439,-0.3118,-0.2713
24.9,-0.7655,0.0561,9.059,-1.2816,-0.3558,-0.3287
24.92,-1.0486,0.1863,10.3301,-1.2535,0.0461,-0.1898
24.94,-0.1305,0.3604,13.9171,-0.6081,0.4894,-0.1087
24.96,0.6503,0.2857,14.0793,0.4028,0.5538,0.0706
24.98,1.7386,0.2456,11.1329,1.1353,0.1197,0.2158
25.0,1.6899,0.0199,8.9052,1.2799,-0.3413,0.3039
25.02,0.8946,-0.4548,8.511,0.8281,-0.3806,0.2906
25.04,0.0169,-0.2582,8.7963,0.155,-0.1014,0.1374
25.06,0.1953,-0.3194,8.9122,-0.2733,0.1278,0.0385
25.08,0.0931,-0.2765,9.3915,-0.3782,0.1559,-0.0191
25.1,0.1644,-0.3937,9.9204,-0.275,0.0835,-0.0862
25.12,0.2842,-0.1654,10.0979,-0.158,-0.0021,-0.0563
25.14,0.4325,0.0498,10.2037,-0.0364,-0.0383,0.0221
25.16,0.35,-0.4586,10.1579,-0.0271,0.0495,-0.01
25.18,0.1776,-0.4515,9.7709,-0.0661,-0.0297,-0.0581
25.2,0.3755,-0.1995,10.0861,-0.0124,0.0257,0.0285
25.22,0.448,0.0102,9.7351,-0.0589,-0.052,-0.0543
25.24,0.6009,-0.2568,10.1114,0.1035,-0.0256,-0.0634
25.26,0.4765,-0.1466,9.6024,0.208,0.0747,-0.0322
25.28,0.3986,0.1557,9.3955,0.3596,0.1951,0.0143
25.3,0.5673,-0.0145,9.0211,0.196,0.1533,0.0294
25.32,0.0555,0.0085,8.8585,-0.2006,-0.0881,0.1588
25.34,-0.3073,-0.0359,8.5085,-0.8735,-0.4298,0.2429
25.36,-0.7087,-0.3384,9.0219,-1.3317,-0.346,0.3215
25.38,-1.322,-0.5016,10.4399,-1.2172,0.1066,0.2656
25.4,0.0051,-0.739,13.899,-0.4338,0.5606,0.1055
25.42,0.6308,-0.7418,12.2004,0.5137,0.5226,-0.1522
25.44,1.4345,-0.4413,10.0094,1.226,0.0024,-0.3
25.46,1.0514,-0.2904,9.0818,1.2545,-0.3967,-0.2939
25.48,0.3668,-0.0015,8.7327,0.7486,-0.3866,-0.2569
25.5,0.1483,-0.0977,8.7834,0.122,-0.0873,-0.1355
25.52,0.1579,-0.078,9.2269,-0.264,0.1775,-0.026
25.54,0.089,-0.1519,9.418,-0.3442,0.1738,0.0157
25.56,-0.0103,-0.1099,9.7981,-0.2099,0.0785,0.0726
25.58,0.1549,-0.0947,9.9689,-0.0735,0.046,0.0397
25.6,0.441,0.0314,10.2283,0.0305,0.0544,0.0552
25.62,0.2362,-0.4974,9.8238,0.0133,0.0279,0.0096
25.64,0.2237,-0.3637,9.8784,-0.008,0.0153,0.0135
25.66,0.0833,-0.2415,10.0811,0.0479,0.0173,0.0687
25.68,0.1513,-0.2082,9.8645,0.1337,0.0045,0.0295
25.7,0.7334,-0.3891,9.5219,0.2414,0.0859,0.0559
25.72,0.5633,-0.2802,9.2583,0.3532,0.2131,0.026
25.74,0.341,-0.4398,8.7312,0.2117,0.1858,-0.0472
25.76,0.5756,-0.4109,8.956,-0.1496,-0.0817,-0.1078
25.78,-0.3683,-0.5307,8.1075,-0.8498,-0.3752,-0.2883
25.8,-1.1245,-0.0077,8.5121,-1.3981,-0.392,-0.3275
25.82,-1.6089,0.1455,10.4796,-1.3326,0.0538,-0.2709
25.84,-0.9978,-0.1505,13.6169,-0.6001,0.5916,-0.1325
25.86,1.0843,0.6277,14.5366,0.4878,0.6377,0.1261
25.88,2.0274,0.1816,10.6269,1.2382,0.1502,0.2334
25.9,1.4941,0.1361,8.4574,1.3913,-0.3749,0.3739
25.92,0.6432,-0.1839,8.2383,0.8581,-0.4613,0.2769
25.94,0.3237,-0.7769,8.4709,0.2171,-0.1151,0.1586
25.96,-0.0914,-0.4106,8.9249,-0.2712,0.1593,0.0192
25.98,-0.2063,-0.5688,9.1618,-0.4154,0.1374,-0.0529
26.0,-0.2621,-0.3562,9.4795,-0.3401,0.0194,-0.0667
26.02,0.2255,-0.1707,9.747,-0.1599,-0.0352,-0.1037
26.04,-0.1188,0.1002,10.2873,-0.0584,-0.0284,-0.0169
26.06,0.0403,-0.2009,9.7507,-0.0153,-0.0098,0.0038
26.08,0.2188,-0.1377,9.6178,-0.01,-0.0433,-0.0511
26.1,0.0726,0.1697,9.7843,0.0067,-0.0156,-0.0041
26.12,0.5478,-0.0509,10.4654,0.117,0.0053,-0.0562
26.14,0.3671,-0.2432,9.549,0.2204,0.0751,-0.0144
26.16,0.2707,0.1855,9.2503,0.3012,0.1349,-0.0264
26.18,0.2253,-0.0787,8.6653,0.1515,0.1235,0.0457
26.2,0.2508,0.2646,8.6813,-0.2336,-0.1245,0.1707
26.22,-0.3283,-0.1657,8.3435,-0.9083,-0.4079,0.2447
26.24,-0.811,-0.5761,8.7714,-1.3178,-0.3704,0.314
26.26,-1.3395,-0.5384,10.4295,-1.2499,0.0898,0.248
26.28,-0.5506,-0.9647,14.2862,-0.5072,0.5109,0.0783
26.3,0.8986,-1.2976,13.5571,0.5161,0.5056,-0.1183
26.32,2.0132,-0.3054,10.8333,1.2458,0.0586,-0.2468
26.34,1.4705,-0.4539,8.4668,1.28,-0.4047,-0.36
26.36,0.8259,0.0687,8.6361,0.772,-0.3694,-0.2732
26.38,0.1941,-0.248,8.6355,0.1278,-0.124,-0.131
26.4,0.5595,0.0068,9.3595,-0.2956,0.177,-0.0132
26.42,0.176,0.0169,9.4148,-0.3806,0.2059,0.0396
26.44,-0.0893,-0.0886,10.0893,-0.2489,0.055,0.0154
26.46,0.2423,0.1473,10.1241,-0.0923,0.039,0.0156
26.48,0.1261,-0.0606,9.7971,-0.0584,0.0363,0.0609
26.5,0.8554,0.0207,10.2571,0.0468,0.0449,0.0478
26.52,0.4653,-0.2145,10.2819,-0.0174,-0.0098,0.0376
26.54,0.6621,-0.3526,10.2254,0.0562,0.0017,0.0314
26.56,0.7226,-0.4111,10.0882,0.1652,0.0102,0.0561
26.58,0.5474,-0.2341,9.1969,0.1968,0.1271,-0.0294
26.6,0.5337,-0.3281,9.4511,0.298,0.1745,0.0106
26.62,0.4211,-0.5542,9.0617,-0.0135,0.039,-0.0561
26.64,-0.0032,-0.2094,8.5541,-0.5241,-0.2697,-0.2485
26.66,-0.486,-0.0986,8.5974,-1.0902,-0.397,-0.2631
26.68,-0.655,0.3879,9.7913,-1.2363,-0.1481,-0.2602
26.7,-0.8159,0.2741,12.4093,-0.8071,0.3222,-0.1794
26.72,0.3126,0.4652,14.538,0.0653,0.6147,0.0677
26.74,2.2108,0.5197,12.3931,0.8529,0.304,0.1545
26.76,1.7543,0.0869,9.1104,1.2254,-0.2122,0.3005
26.78,0.9529,0.0415,8.5809,0.9861,-0.4142,0.2936
26.8,0.2921,-0.3946,8.9242,0.4083,-0.192,0.1641
26.82,0.195,-0.761,8.7685,-0.1193,0.076,0.0769
26.84,-0.0936,-0.3502,9.1907,-0.377,0.1517,-0.024
26.86,0.1879,-0.1546,10.2149,-0.257,0.1918,-0.0235
26.88,0.0245,-0.0035,9.8352,-0.1843,-0.0081,-0.0191
26.9,0.1936,-0.3133,9.7874,-0.1124,-0.048,-0.0439
26.92,0.5255,0.1381,10.2095,0.0703,0.0706,0.0233
26.94,0.333,-0.3425,9.7687,-0.0102,-0.0045,-0.0297
26.96,0.3798,-0.3561,9.8663,0.006,-0.0067,0.0152
26.98,0.2478,-0.2538,9.784,0.0446,-0.0478,-0.013
27.0,0.4676,-0.3882,9.8095,0.2323,0.0903,-0.0281
27.02,0.5568,0.1593,9.7069,0.371,0.1663,-0.0003
27.04,0.4484,-0.1656,8.9979,0.2567,0.1391,-0.0055
27.06,0.1311,0.109,8.7393,-0.1004,-0.0213,0.125
27.08,-0.3574,0.0386,8.2603,-0.6559,-0.3308,0.2018
27.1,-0.6337,-0.286,8.1709,-1.1787,-0.3945,0.2786
27.12,-1.3876,-0.7085,9.6817,-1.2311,-0.0338,0.2482
27.14,-0.9189,-0.7218,13.3391,-0.6604,0.4711,0.1108
27.16,0.5061,-0.8528,13.8477,0.2216,0.5542,-0.0786
27.18,1.0751,-0.8512,10.5936,1.0341,0.1741,-0.2247
27.2,1.8467,-0.2717,9.0727,1.2558,-0.2394,-0.269
27.22,1.066,-0.3748,8.4102,0.9118,-0.4305,-0.2616
27.24,0.476,-0.0621,8.5648,0.3751,-0.1364,-0.1293
27.26,0.2158,-0.2613,8.9639,-0.1939,0.113,-0.0439
27.28,-0.232,-0.184,9.2269,-0.3188,0.1786,0.0479
27.3,-0.0417,-0.2302,9.4509,-0.2759,0.0962,0.0205
27.32,-0.165,-0.365,9.6717,-0.1775,0.0042,0.0668
27.34,0.2226,-0.3147,10.1511,-0.0463,-0.0116,0.0679
27.36,0.2132,-0.4848,9.6366,-0.0283,0.0278,-0.0288
27.38,0.1329,-0.4149,9.8625,-0.0034,0.0653,-0.0066
27.4,0.2116,-0.1025,9.6482,-0.0176,0.0242,0.0207
27.42,0.1227,-0.0795,10.1156,-0.0741,0.0026,-0.0291
27.44,0.1613,-0.1101,9.6979,0.0189,-0.0185,0.0145
27.46,0.4964,-0.4133,9.6017,0.1268,-0.0171,0.029
27.48,0.8753,-0.1095,9.4074,0.3167,0.144,0.0525
27.5,0.1842,-0.3487,8.8571,0.2469,0.1374,-0.0079
27.52,0.2626,-0.4204,9.0189,0.0488,0.051,-0.1008
27.54,-0.0325,-0.2766,8.3643,-0.5227,-0.2461,-0.2092
27.56,-0.5043,-0.2335,8.7698,-1.022,-0.3813,-0.2505
27.58,-0.8819,-0.0672,9.6003,-1.1604,-0.1174,-0.25
27.6,-0.7327,0.1188,12.6684,-0.7279,0.371,-0.1218
27.62,0.8596,0.4224,14.4314,0.1188,0.5342,0.0113
27.64,1.7874,0.3368,11.3964,0.9027,0.2793,0.1503
27.66,1.5499,-0.0822,9.1643,1.1273,-0.2377,0.2198
27.68,0.7336,-0.0685,8.8318,0.8825,-0.3687,0.2253
27.7,0.3609,-0.2925,8.6936,0.3957,-0.176,0.1839
27.72,0.4119,-0.5335,9.0578,-0.1181,0.0905,0.1021
27.74,0.5875,-0.2427,9.3248,-0.3028,0.1606,-0.0391
27.76,-0.0752,-0.1769,9.2928,-0.3177,0.112,-0.0411
27.78,0.3682,0.0757,10.2645,-0.1151,0.0087,-0.0225
27.8,0.2851,-0.2881,10.2504,-0.0568,-0.0011,-0.0105
27.82,0.1906,-0.1025,9.8402,0.0011,-0.0285,-0.0684
27.84,0.0704,-0.0262,9.8812,0.004,0.0429,-0.0027
27.86,0.4272,-0.2723,9.8438,-0.0159,-0.0199,-0.0237
27.88,0.4053,0.0538,10.0639,-0.0175,0.0211,-0.0178
27.9,0.6666,-0.1598,10.4026,-0.0414,0.0076,-0.0437
27.92,0.5601,0.0493,10.6567,0.1447,0.0346,-0.0274
27.94,1.1272,0.2446,9.8693,0.2729,0.0947,-0.0429
27.96,0.8004,0.0886,9.5993,0.334,0.2345,0.0115
27.98,0.5052,0.0428,9.4373,0.1888,0.1171,0.0798
28.0,0.3312,-0.1311,8.8549,-0.2601,-0.1093,0.1569
28.02,-0.172,-0.4032,8.3495,-0.9027,-0.4323,0.2287
28.04,-1.1444,-0.4101,8.8503,-1.2922,-0.3252,0.2662
28.06,-1.5821,-0.7536,11.1771,-1.1353,0.1531,0.1712
28.08,0.6921,-0.4884,15.4088,-0.269,0.6231,0.08
28.1,1.4234,-0.9697,13.3643,0.6516,0.4462,-0.134
28.12,2.1148,-0.5482,10.1411,1.2094,-0.0257,-0.2486
28.14,1.3918,-0.4331,8.1359,1.1328,-0.4244,-0.316
28.16,0.7072,-0.3207,8.799,0.6264,-0.3164,-0.2377
28.18,0.387,-0.1471,8.8041,0.0256,-0.0289,-0.1351
28.2,0.4863,0.0037,9.3069,-0.279,0.1761,-0.0322
28.22,0.2106,-0.1514,9.5899,-0.3365,0.1704,0.067
28.24,0.2619,-0.0316,9.7455,-0.2805,-0.0011,-0.0219
28.26,-0.1729,-0.5066,9.823,-0.1062,-0.0415,0.0273
28.28,0.3985,0.0049,10.2548,-0.0638,-0.0269,0.0127
28.3,0.6903,0.061,10.1082,0.0153,0.0019,-0.0144
28.32,0.3179,-0.3162,9.7742,-0.0078,-0.0349,0.0291
28.34,0.5224,-0.2582,9.8052,0.0436,-0.0438,0.0377
28.36,0.6853,-0.4684,9.8252,0.1747,0.0343,0.0663
28.38,0.8259,-0.428,9.5114,0.3353,0.1256,0.0231
28.4,0.6915,-0.252,9.5651,0.3512,0.2013,0.0119
28.42,0.2732,-0.6519,8.6106,0.034,0.0189,-0.1254
28.44,0.1292,-0.3419,8.5272,-0.5318,-0.2845,-0.2014
28.46,-0.5598,-0.0294,8.6512,-1.1231,-0.436,-0.3262
28.48,-0.9162,-0.0834,9.1072,-1.2895,-0.1726,-0.2788
28.5,-1.0692,0.3567,12.8946,-0.8006,0.4125,-0.1444
28.52,0.1937,0.1832,14.2379,0.0683,0.6378,-0.0036
28.54,2.0037,0.5765,12.5591,0.9833,0.3016,0.2233
28.56,1.934,-0.1265,9.0862,1.3221,-0.2335,0.2861
28.58,1.1635,-0.1849,8.5298,0.999,-0.4353,0.2865
28.6,0.3832,-0.5306,8.1845,0.3397,-0.2738,0.1836
28.62,0.3123,-0.5437,8.7694,-0.1103,0.0561,0.0797
28.64,0.2314,-0.3079,9.663,-0.2986,0.2471,0.0098
28.66,-0.0564,-0.5841,9.6366,-0.2629,0.1454,-0.0169
28.68,0.0782,-0.1045,9.8604,-0.1779,0.018,-0.0458
28.7,0.3899,-0.1731,9.9465,-0.067,-0.066,-0.034
28.72,0.0964,0.0394,9.7027,-0.0178,0.0123,-0.0033
28.74,0.4583,-0.4621,9.4842,-0.025,-0.033,-0.0176
28.76,0.2926,-0.703,9.3575,-0.0225,-0.0416,-0.0024
28.78,0.4863,-0.1506,9.8464,-0.0146,0.0185,-0.0322
28.8,0.5334,-0.4634,9.626,0.1086,-0.0074,0.0028
28.82,0.8104,-0.1514,9.6841,0.2888,0.1293,-0.0054
28.84,0.6381,-0.2962,9.2908,0.313,0.16,-0.0114
28.86,0.2579,-0.2925,8.8715,0.08,0.0204,0.0538
28.88,-0.1813,-0.0843,8.3556,-0.4214,-0.1947,0.0901
28.9,-0.1473,-0.5184,8.3668,-0.9309,-0.3693,0.2932
28.92,-0.9117,-0.2619,9.0389,-1.1681,-0.1511,0.1855
28.94,-0.8464,-0.493,12.1463,-0.864,0.247,0.2357
28.96,0.2518,-0.7759,13.8273,-0.0341,0.5262,-0.0338
28.98,1.0963,-1.0907,11.2815,0.6944,0.2755,-0.1765
29.0,1.3872,-0.699,9.5529,1.125,-0.1506,-0.2419
29.02,1.0853,-0.0253,8.4546,0.9648,-0.3651,-0.2569
29.04,0.9564,-0.1738,9.0344,0.453,-0.1918,-0.2137
29.06,0.3466,-0.1821,8.8125,-0.0678,0.0282,-0.0751
29.08,0.1038,-0.3211,8.9938,-0.2756,0.1693,-0.0246
29.1,-0.4132,-0.2718,9.3598,-0.3099,0.0488,0.0318
29.12,-0.0793,-0.2274,9.762,-0.1872,0.0161,0.048
29.14,0.4484,-0.3322,10.3271,-0.0584,0.0101,0.0443
29.16,0.5904,-0.0241,10.333,0.0239,-0.0121,-0.0051
29.18,0.3969,-0.2663,9.8437,0.0155,-0.0005,-0.0167
29.2,0.1897,-0.3127,9.7518,-0.0184,0.0304,-0.0125
29.22,0.7062,-0.0193,9.9548,-0.0122,0.0318,-0.0069
29.24,0.4214,-0.445,9.9044,0.0208,0.0213,0.0303
29.26,0.4611,-0.2817,10.0746,-0.0119,-0.0175,-0.0225
29.28,0.4841,-0.519,10.1328,0.0296,-0.0287,0.0311
29.3,0.6003,-0.3271,9.8233,0.2017,0.0027,0.0616
29.32,0.4518,-0.4077,8.9002,0.2678,0.0923,-0.0049
29.34,0.3589,-0.4201,9.2774,0.2774,0.1557,-0.0023
29.36,0.4172,-0.4128,9.0358,0.007,0.0027,-0.1167
29.38,0.1267,-0.324,9.1162,-0.5862,-0.2949,-0.2081
29.4,-0.446,-0.336,8.7688,-1.0554,-0.3935,-0.2586
29.42,-1.023,0.1415,9.8578,-1.1723,-0.0884,-0.2743
29.44,-0.9883,0.0561,12.2885,-0.7462,0.3931,-0.1685
29.46,1.2856,0.6502,15.211,0.1669,0.579,0.0263
29.48,2.0357,0.177,11.9913,0.9184,0.2212,0.1809
29.5,1.9147,-0.0449,9.2003,1.2621,-0.199,0.2781
29.52,0.8679,-0.1539,8.6921,0.87,-0.4009,0.245
29.54,0.9501,-0.0153,8.9158,0.3456,-0.152,0.1517
29.56,0.5592,-0.4326,8.9998,-0.1732,0.0576,0.0871
29.58,0.3396,-0.4146,9.5798,-0.3228,0.1784,0.03
29.6,-0.0471,-0.141,9.5476,-0.3399,0.0875,-0.0456
29.62,0.3686,-0.0682,10.2657,-0.1469,-0.0124,0.0077
29.64,0.6509,-0.14,10.4748,-0.0066,0.0373,-0.003
29.66,0.6255,0.2526,10.2568,-0.0299,0.0089,-0.027
29.68,1.0227,-0.0005,10.0767,-0.0025,-0.0226,-0.0005
29.7,0.4442,-0.6439,9.8607,-0.0224,0.0071,0.008
29.72,0.3612,-0.0059,10.1561,-0.0474,0.0158,-0.0122
29.74,0.8017,0.0478,10.2946,0.0666,0.0058,0.0138
29.76,0.6292,0.0384,10.2562,0.1515,0.0216,0.0027
29.78,1.1329,0.0828,9.778,0.2877,0.0943,-0.0393
29.8,0.6203,-0.3005,9.0192,0.2967,0.1304,-0.0851
29.82,0.5094,0.0143,9.1615,0.2087,0.0708,0.0319
29.84,0.4184,0.1813,8.9408,-0.2501,-0.1343,0.1727
29.86,-0.1103,-0.216,8.2318,-0.9325,-0.4442,0.2524
29.88,-0.9525,-0.3312,8.6693,-1.2936,-0.375,0.325
29.9,-1.2959,-0.7051,10.697,-1.1082,0.1411,0.2323
29.92,0.2167,-0.7371,14.6429,-0.3441,0.5719,0.0864
29.94,1.6633,-0.6736,13.7127,0.6518,0.5051,-0.1087
29.96,1.9659,-0.4395,10.2759,1.2381,-0.0407,-0.2052
29.98,1.224,-0.2844,8.2298,1.1671,-0.4674,-0.3571
30.0,0.8173,-0.1655,8.631,0.6695,-0.376,-0.2336
30.02,0.6337,-0.0296,8.8304,0.085,-0.071,-0.1121
30.04,0.9199,0.1642,9.2082,-0.2919,0.1647,-0.0085
30.06,0.1885,-0.2434,9.4099,-0.401,0.1406,0.0368
30.08,-0.0588,0.0986,9.5581,-0.2515,0.0408,0.0645
30.1,0.5206,-0.0486,9.8271,-0.0891,-0.0337,0.0794
30.12,0.204,-0.2194,9.9744,-0.0179,0.0215,0.0361
30.14,0.192,-0.1792,9.8658,-0.0004,-0.0152,0.0488
30.16,0.5318,-0.3521,9.5023,-0.0457,-0.0506,-0.0072
30.18,0.2569,-0.1737,9.7833,-0.0021,-0.0198,0.0367
30.2,0.6091,-0.3811,9.9784,0.0365,-0.0423,0.074
30.22,0.3384,-0.3653,9.7022,0.1511,0.0028,0.0135
30.24,0.3607,-0.5463,9.3166,0.2917,0.1051,0.0275
30.26,0.5227,-0.3804,9.3523,0.3074,0.2338,0.02
30.28,0.2124,-0.7516,8.6618,0.0466,-0.0142,-0.0646
30.3,0.5251,-0.2634,8.8594,-0.4569,-0.186,-0.1613
30.32,-0.2858,-0.2997,8.2587,-1.0415,-0.3943,-0.2865
30.34,-0.9694,0.0876,9.3005,-1.2438,-0.1774,-0.2169
30.36,-1.0893,0.2173,12.0386,-0.8877,0.3455,-0.1697
30.38,0.4004,0.5505,14.2395,0.0093,0.5925,0.0033
30.4,1.489,-0.1029,12.117,0.8873,0.3649,0.1712
30.42,1.6074,-0.2407,8.9716,1.2491,-0.2122,0.2402
30.44,1.1902,-0.4387,8.4748,0.9943,-0.4416,0.286
30.46,0.4891,-0.8123,8.6055,0.451,-0.2,0.1676
30.48,0.2878,-0.3511,8.8408,-0.0944,0.0221,0.1212
30.5,0.1708,-0.4095,9.1892,-0.3233,0.2019,-0.0032
30.52,-0.1724,-0.7964,9.0206,-0.3679,0.0606,-0.0725
30.54,0.1904,-0.3093,9.4535,-0.1765,0.0047,-0.0276
30.56,0.0513,-0.334,9.7243,-0.0683,-0.0161,0.0022
30.58,0.3821,-0.2936,9.8341,0.029,-0.006,-0.0189
30.6,0.5366,-0.1775,9.7547,0.0596,-0.0101,-0.0066
30.62,0.1805,-0.4422,9.5203,-0.0226,0.014,-0.0071
30.64,0.7363,-0.1835,10.3095,0.0428,0.0077,-0.0022
30.66,0.2301,-0.2587,9.7243,0.0875,0.0101,-0.0365
30.68,0.841,-0.1634,9.6502,0.2473,0.0508,-0.0423
30.7,0.7267,-0.1382,8.9953,0.3522,0.138,-0.0279
30.72,0.4852,-0.0675,9.0222,0.2486,0.1251,0.0632
30.74,0.1746,0.1531,8.6291,-0.2332,-0.0978,0.1312
30.76,-0.0806,0.0596,8.3509,-0.8142,-0.4253,0.2836
30.78,-0.8836,-0.712,8.3207,-1.3129,-0.3868,0.2856
30.8,-0.434,-0.5525,11.4649,-1.1164,0.0911,0.2323
30.82,-0.4184,-1.3195,13.6513,-0.3866,0.6159,0.0956
30.84,1.3786,-0.839,13.5002,0.5633,0.5001,-0.1046
30.86,2.1114,-0.3005,10.9155,1.2577,0.0558,-0.2321
30.88,1.3679,-0.445,8.2965,1.1927,-0.3684,-0.3032
30.9,1.2183,0.1405,8.922,0.8145,-0.3216,-0.2461
30.92,0.5725,-0.1454,8.6386,0.1139,-0.0827,-0.1289
30.94,0.3491,-0.0279,8.984,-0.2997,0.1159,-0.0195
30.96,0.1843,-0.3423,9.5263,-0.3619,0.1643,0.0372
30.98,0.0568,-0.2233,9.5264,-0.2602,0.0079,0.0442
31.0,0.2694,-0.4845,9.8781,-0.1609,-0.0722,0.0416
31.02,0.8168,-0.178,10.0892,0.0303,-0.0344,0.0365
31.04,0.4658,-0.2956,10.1006,-0.0406,-0.0102,-0.0021
31.06,0.3761,-0.1169,9.9726,-0.0806,-0.048,-0.0064
31.08,0.7474,-0.0984,10.3437,0.0327,-0.0187,0.0593
31.1,0.6854,-0.1568,9.955,0.1409,-0.0779,0.0419
31.12,0.6043,-0.0601,9.7994,0.3003,0.0794,0.0193
31.14,0.8831,-0.3937,9.8998,0.3541,0.167,0.0373
31.16,0.4373,-0.6078,8.7846,0.0727,0.0209,-0.0908
31.18,0.6562,-0.5734,8.7362,-0.4123,-0.2136,-0.23
31.2,0.139,-0.1946,8.9521,-0.9674,-0.4082,-0.2538
31.22,-0.2975,0.079,9.2283,-1.326,-0.261,-0.2549
31.24,-1.0255,-0.1221,10.8889,-1.0432,0.1661,-0.1928
31.26,0.5965,0.6623,14.0623,-0.1561,0.5663,-0.0057
31.28,1.3318,0.2506,12.0126,0.7358,0.4115,0.1658
31.3,1.3513,0.1477,9.8832,1.2784,-0.1212,0.2794
31.32,0.9753,-0.3236,8.8774,1.1133,-0.4844,0.2853
31.34,0.9532,-0.3909,9.4397,0.5628,-0.3201,0.2197
31.36,0.6135,-0.2331,9.7082,-0.0151,0.0056,0.1127
31.38,0.3417,-0.2507,9.5682,-0.3006,0.201,0.0457
31.4,0.3366,-0.5208,9.4498,-0.3454,0.1346,-0.034
31.42,0.435,-0.2126,9.632,-0.2044,0.032,-0.0776
31.44,0.6124,-0.2894,10.1774,-0.0227,-0.0413,-0.0453
31.46,0.6489,-0.242,10.0234,0.0179,-0.0122,-0.0104
31.48,0.5704,-0.2423,9.7505,0.0039,-0.0438,0.0275
31.5,0.3784,-0.189,9.7693,-0.0003,0.0109,0.0274
31.52,0.3906,0.0744,9.9578,0.0148,-0.0026,0.0458
31.54,0.3699,-0.3302,9.9579,-0.0154,-0.0112,0.0161
31.56,0.216,-0.3842,10.0046,0.0223,-0.0517,-0.019
31.58,0.3442,-0.1204,9.9162,0.1926,-0.0082,-0.0428
31.6,0.6996,0.1106,9.4133,0.2808,0.0921,-0.0603
31.62,0.8989,0.0062,9.4205,0.4059,0.1827,-0.0294
31.64,0.6539,-0.076,8.4297,0.0373,0.0318,0.117
31.66,0.5335,-0.2369,8.5368,-0.481,-0.2456,0.1897
31.68,0.1878,-0.164,8.3231,-1.0265,-0.4334,0.2594
31.7,-0.9227,-0.4962,9.2036,-1.2754,-0.2013,0.2672
31.72,-1.0375,-0.5052,12.1101,-0.984,0.3094,0.1497
31.74,0.4498,-1.2118,14.067,-0.0192,0.6237,-0.0051
31.76,1.4633,-1.0141,11.9058,0.8587,0.3178,-0.2332
31.78,1.5816,-0.5431,9.0282,1.255,-0.2541,-0.3309
31.8,0.9516,-0.5116,8.4624,1.0765,-0.476,-0.2952
31.82,0.8787,0.1677,8.6284,0.4975,-0.2462,-0.2077
31.84,0.49,0.024,8.6304,-0.0987,0.034,-0.0956
31.86,0.0062,-0.1022,8.7684,-0.3689,0.1475,-0.0395
31.88,-0.1079,-0.2824,9.1305,-0.3098,0.1291,0.001
31.9,0.347,-0.331,9.6512,-0.1396,0.0501,0.0398
31.92,0.3871,-0.1099,10.1236,-0.0959,-0.0412,0.0283
31.94,0.6399,-0.3485,9.6992,0.0154,-0.0286,-0.0027
31.96,0.6051,0.1079,9.8033,0.0431,0.0017,-0.0014
31.98,0.5385,-0.4241,10.2096,0.0626,-0.0061,0.0402
32.0,0.6051,-0.5263,9.5359,0.1726,-0.009,0.0738
32.02,0.4625,-0.6222,9.1088,0.2747,0.05,-0.0113
32.04,0.5193,-0.6618,9.0715,0.3722,0.1583,0.0168
32.06,0.247,-0.5301,8.8293,0.1506,0.0879,-0.0675
32.08,0.2218,-0.6577,8.4533,-0.3932,-0.2459,-0.1841
32.1,-0.1047,-0.2771,8.5364,-0.9687,-0.4177,-0.2484
32.12,-1.2017,-0.2233,8.6891,-1.3858,-0.3067,-0.2773
32.14,-0.6756,0.1989,11.9143,-1.0672,0.2488,-0.2621
32.16,-0.2868,0.0786,13.7691,-0.1328,0.5958,0.0252
32.18,1.8941,0.6208,12.933,0.7902,0.4104,0.1699
32.2,1.7611,-0.0486,9.3458,1.2686,-0.1517,0.2921
32.22,1.5615,-0.1093,8.6696,1.2063,-0.4105,0.3204
32.24,0.7365,-0.3962,8.679,0.5642,-0.2996,0.2301
32.26,0.0883,-0.4097,8.4799,-0.0314,-0.0361,0.1022
32.28,0.5121,-0.4033,9.2527,-0.3223,0.1766,0.0369
32.3,0.3192,-0.4077,9.5094,-0.2964,0.1467,-0.0059
32.32,0.5489,-0.3148,9.6996,-0.1838,-0.0086,-0.0736
32.34,0.5955,-0.1066,10.3461,-0.0518,-0.0267,0.0105
32.36,0.5623,-0.1848,9.7928,-0.0072,-0.0261,-0.0223
32.38,0.5047,-0.4517,9.773,-0.0145,-0.0279,-0.0185
32.4,0.3135,-0.0054,9.4986,-0.0349,-0.011,0.026
32.42,0.5707,-0.4647,9.6506,-0.0434,0.0598,0.0133
32.44,0.4846,-0.3291,9.865,-0.0705,-0.0153,-0.0233
32.46,0.3493,-0.3189,9.9799,0.025,-0.0316,-0.0363
32.48,0.9008,-0.1308,10.0956,0.1551,-0.023,-0.0586
32.5,0.8455,-0.0773,9.5737,0.2508,0.113,-0.0356
32.52,0.8735,0.3193,9.5962,0.3631,0.1545,0.0489
32.54,0.8058,0.0713,9.5319,0.257,0.1014,0.0836
32.56,0.6932,0.1183,9.003,-0.3087,-0.1574,0.1705
32.58,0.2083,-0.1583,8.9448,-0.8455,-0.425,0.2544
32.6,-0.7426,-0.4,8.8708,-1.2609,-0.3152,0.2839
32.62,-0.9695,-0.7311,11.2066,-1.0547,0.1583,0.2076
32.64,0.0767,-0.6646,14.217,-0.2794,0.5845,0.0589
32.66,1.3931,-0.7554,13.0753,0.6402,0.4101,-0.158
32.68,2.1854,-0.4511,10.1284,1.2469,-0.0776,-0.2298
32.7,1.3592,-0.3011,8.8094,1.1665,-0.4298,-0.2918
32.72,1.098,0.0231,8.8479,0.6253,-0.3597,-0.2507
32.74,0.548,-0.2845,8.6881,0.0277,-0.0603,-0.119
32.76,0.5826,-0.0706,9.2514,-0.2613,0.1775,-0.0205
32.78,0.1156,-0.13,9.1781,-0.3103,0.117,0.0185
32.8,0.4175,-0.3182,9.8815,-0.2144,0.0448,0.0396
32.82,0.6387,-0.1106,10.1196,-0.0491,-0.0094,0.0847
32.84,0.2487,-0.4959,9.8485,-0.0359,-0.0693,-0.0272
32.86,0.7617,0.1632,10.482,0.0455,0.0472,0.0092
32.88,0.1681,0.053,10.0105,0.0177,-0.0043,0.0259
32.9,0.5333,-0.2378,10.1466,0.0162,-0.0443,0.0015
32.92,0.672,0.1489,10.4146,0.1117,-0.0257,0.0316
32.94,0.8646,-0.2672,9.6354,0.2067,0.0129,0.0341
32.96,0.4236,-0.4247,9.1635,0.2433,0.0908,0.005
32.98,0.604,-0.2861,9.1592,0.1953,0.1623,-0.0672
33.0,0.0956,-0.2646,9.1546,-0.1079,-0.0861,-0.127
33.02,-0.2413,-0.5107,8.6138,-0.669,-0.3519,-0.2231
33.04,-0.1662,-0.2816,8.6567,-1.1246,-0.3941,-0.2731
33.06,-0.8305,0.2018,10.3112,-1.062,0.0072,-0.2211
33.08,-0.3606,0.0223,12.721,-0.4919,0.4786,-0.1032
33.1,0.9073,0.229,13.5218,0.3475,0.4808,0.0712
33.12,1.7747,0.0947,10.5084,0.99,0.0869,0.196
33.14,1.4463,-0.0547,8.9822,1.0835,-0.3403,0.2831
33.16,0.8897,-0.2891,8.63,0.7134,-0.396,0.2173
33.18,0.6999,-0.4082,8.9153,0.2266,-0.0818,0.1147
33.2,0.7518,-0.3302,9.3603,-0.1573,0.1258,0.0056
33.22,0.4343,-0.4845,9.7531,-0.3013,0.1783,-0.0016
33.24,0.0159,-0.4981,9.3437,-0.2733,-0.0074,-0.0251
33.26,0.2811,-0.1799,10.2392,-0.0657,0.0076,-0.0157
33.28,0.3108,-0.2621,9.5786,-0.0762,-0.0359,-0.0457
33.3,0.1944,-0.3269,9.5942,0.0248,-0.0452,-0.0362
33.32,0.2899,0.0257,9.7269,0.0104,-0.0102,-0.0295
33.34,0.2363,-0.4483,9.6296,-0.0099,0.0223,-0.0277
33.36,0.4697,-0.1564,9.9861,0.0945,-0.0415,-0.0127
33.38,0.7548,-0.192,9.7214,0.2388,0.0072,-0.0542
33.4,0.7747,-0.0549,9.2333,0.3529,0.1238,0.0193
33.42,0.7318,-0.0268,8.9881,0.2728,0.1451,0.0168
33.44,0.3384,-0.2584,8.7269,-0.0964,-0.0404,0.1223
33.46,-0.026,-0.0713,8.7084,-0.692,-0.3502,0.2045
33.48,-0.5937,-0.6186,8.4155,-1.1626,-0.3918,0.303
33.5,-1.0521,-0.8191,9.902,-1.1805,-0.0181,0.2569
33.52,-0.2456,-0.3282,13.2683,-0.6155,0.4849,0.1373
33.54,0.8738,-0.8304,13.4523,0.3228,0.5807,-0.0768
33.56,1.6252,-0.7589,10.7544,1.091,0.1338,-0.2141
33.58,1.8215,-0.4763,8.9358,1.264,-0.3821,-0.3102
33.6,0.7916,-0.1334,8.6068,0.8524,-0.3964,-0.2402
33.62,0.3112,0.038,8.547,0.2509,-0.1419,-0.1372
33.64,0.0563,-0.1641,8.6469,-0.2164,0.0794,-0.0557
33.66,0.2232,-0.0216,9.1068,-0.3512,0.2047,-0.0159
33.68,-0.238,-0.4923,9.1921,-0.2888,0.0488,0.0506
33.7,0.2395,-0.1733,9.9114,-0.1363,-0.0529,0.039
33.72,0.4583,0.0294,10.094,0.0022,-0.028,0.0302
33.74,0.3102,-0.0123,9.906,0.0113,-0.025,-0.0109
33.76,0.6418,-0.2057,9.787,0.0427,0.0065,0.0002
33.78,0.6357,-0.3483,9.8084,-0.0062,-0.0189,0.0521
33.8,0.1824,-0.3103,9.7579,0.0218,-0.0381,-0.0193
33.82,0.5682,-0.1551,9.8721,0.071,-0.0324,-0.0083
33.84,0.779,-0.4292,9.5705,0.1801,-0.0189,0.0556
33.86,0.9872,-0.4968,9.1397,0.349,0.1091,0.0166
33.88,0.638,-0.1974,9.3507,0.2729,0.1876,-0.0066
33.9,0.3803,-0.1267,8.5389,-0.1223,-0.105,-0.095
33.92,-0.1907,-0.5338,8.2485,-0.7301,-0.4305,-0.2273
33.94,-0.5129,0.1829,8.6345,-1.1306,-0.3805,-0.2528
33.96,-0.7397,0.1988,10.4016,-1.1226,-0.0178,-0.2154
33.98,0.0648,0.2437,13.4444,-0.5996,0.4554,-0.1403
34.0,1.1318,0.5107,13.6647,0.3953,0.512,0.0813
34.02,1.57,0.1752,10.9709,1.1087,0.1224,0.218
34.04,1.4531,0.1947,9.1822,1.2031,-0.2947,0.3164
34.06,0.6311,-0.3041,8.6546,0.8227,-0.4082,0.225
34.08,0.7335,-0.4708,8.6756,0.2244,-0.1353,0.1305
34.1,0.7275,-0.3685,9.2105,-0.1938,0.0739,0.0393
34.12,0.498,-0.3241,9.4643,-0.3393,0.1242,-0.0378
34.14,0.4953,-0.1962,9.8602,-0.2532,0.1017,-0.0482
34.16,0.3093,-0.1675,10.0582,-0.0962,0.0164,-0.0001
34.18,0.4567,-0.1166,10.0755,-0.0246,-0.05,0.0101
34.2,0.6535,-0.161,10.0571,0.0441,-0.047,0.0115
34.22,0.8695,-0.2999,10.3893,-0.037,0.0298,-0.0064
34.24,0.2624,-0.3436,9.8942,-0.0315,0.0157,-0.0446
34.26,0.5966,-0.0712,9.7986,0.0483,-0.0548,-0.0225
34.28,1.3721,0.25,10.8045,0.2068,-0.0297,0.021
34.3,1.0165,0.1217,9.8296,0.3203,0.1364,-0.0671
34.32,0.9215,-0.0625,9.5261,0.4055,0.1859,-0.0334
34.34,0.4925,0.0812,8.9245,0.0838,0.0608,0.0303
34.36,0.5028,0.0372,8.8261,-0.3436,-0.2093,0.2024
34.38,-0.2133,-0.2691,8.6325,-0.9401,-0.4489,0.279
34.4,-0.8651,-0.4187,9.037,-1.3248,-0.2978,0.3061
34.42,-1.1446,-0.6344,11.0662,-1.1096,0.1896,0.1913
34.44,0.4728,-0.7604,14.3206,-0.2348,0.5853,0.0409
34.46,1.848,-0.6736,12.9647,0.7626,0.4339,-0.1068
34.48,2.1566,-0.6144,9.5176,1.2554,-0.1411,-0.3125
34.5,1.3806,-0.0887,8.4408,1.1771,-0.4739,-0.3303
34.52,0.9098,-0.0023,8.7807,0.6123,-0.3358,-0.2663
34.54,0.1764,-0.1216,8.4658,-0.0244,-0.0355,-0.121
34.56,0.6788,0.1258,9.4151,-0.3223,0.1853,-0.0289
34.58,0.1644,-0.0408,9.6439,-0.3494,0.0786,0.0123
34.6,0.4339,-0.1164,10.1143,-0.167,0.0075,0.0337
34.62,0.3373,-0.4186,10.148,-0.0314,0.0093,0.0203
34.64,0.4918,-0.0641,10.1182,0.0192,-0.0509,0.0475
34.66,0.5084,-0.1038,9.7486,0.0072,-0.0086,0.0335
34.68,0.5772,-0.4656,9.7769,-0.0133,-0.0389,0.0252
34.7,0.1861,-0.3578,9.3741,-0.068,-0.0031,-0.0257
34.72,0.6135,-0.1093,10.0332,0.02,-0.0106,0.0109
34.74,0.672,0.0722,9.9257,0.0067,-0.0073,0.0349
34.76,0.6194,0.0081,10.0318,0.1665,-0.0152,0.0982
34.78,0.4161,-0.4185,9.8511,0.2144,-0.005,0.0526
34.8,0.4685,-0.3123,9.1768,0.3404,0.1313,-0.0165
34.82,0.4715,-0.2197,9.2393,0.2473,0.1573,0.0323
34.84,0.1287,-0.4224,8.7622,-0.137,-0.0922,-0.1012
34.86,-0.1363,-0.3076,8.5223,-0.6464,-0.4037,-0.2373
34.88,-0.6257,-0.0535,8.7642,-1.1007,-0.3355,-0.279
34.9,-0.8268,0.0021,10.0067,-1.0791,-0.0166,-0.1917
34.92,-0.2258,0.2728,13.0247,-0.4519,0.4219,-0.1117
34.94,0.6231,0.134,12.4103,0.3594,0.4393,0.057
34.96,2.0144,0.262,10.5851,1.0383,0.0131,0.2064
34.98,1.3073,-0.0402,9.0042,1.1602,-0.336,0.2806
35.0,0.96,-0.2218,9.039,0.7717,-0.3541,0.264
35.02,0.4326,-0.4465,8.7008,0.1551,-0.1118,0.1323
35.04,0.4083,-0.6551,9.1404,-0.1626,0.1182,0.012
35.06,0.5354,-0.3267,9.2376,-0.278,0.1578,0.0126
35.08,0.3409,-0.09,9.4613,-0.2423,0.0259,-0.0589
35.1,0.2185,-0.4562,9.6753,-0.0946,-0.0757,-0.0083
35.12,0.4654,0.1189,10.1987,0.0316,-0.0631,-0.0366
35.14,0.3737,-0.4853,9.45,-0.0554,-0.0148,-0.0073
35.16,0.2756,-0.2748,9.6106,0.0134,-0.015,0.0207
35.18,0.1401,-0.3436,9.5563,-0.0469,-0.0534,-0.0412
35.2,0.5606,-0.4454,9.7845,0.0078,-0.056,-0.0192
35.22,0.4881,-0.2674,9.6308,0.0906,-0.0815,-0.0127
35.24,0.3869,-0.4017,9.3871,0.2397,0.0155,0.0002
35.26,0.7008,-0.2084,9.0753,0.2965,0.1391,-0.0345
35.28,0.2656,-0.1751,8.8062,0.199,0.0731,0.0353
35.3,0.7029,0.1304,9.0922,-0.1578,-0.1357,0.1686
35.32,0.0772,-0.1432,8.6591,-0.71,-0.3621,0.2286
35.34,-0.7098,-0.4136,8.4818,-1.1627,-0.3206,0.3126
35.36,-0.9986,-0.2212,10.6027,-1.0973,0.0537,0.2277
35.38,0.0302,-0.5186,13.3113,-0.3917,0.5008,0.0506
35.4,0.7941,-0.8967,12.7351,0.4375,0.5267,-0.1478
35.42,1.7486,-0.6708,10.625,1.0959,0.0203,-0.2911
35.44,1.4837,-0.2289,8.8464,1.1737,-0.3419,-0.27
35.46,0.8998,-0.0073,8.5059,0.7056,-0.3743,-0.2188
35.48,0.4102,-0.0455,8.8784,0.1678,-0.0456,-0.0745
35.5,0.3107,-0.1789,9.2047,-0.1966,0.1047,-0.0182
35.52,0.2431,0.1345,9.1453,-0.3227,0.0836,0.0313
35.54,0.5222,0.2682,9.6292,-0.2501,0.0508,0.0389
35.56,0.3783,-0.1491,9.8839,-0.1195,-0.0819,0.0186
35.58,0.3716,-0.2765,9.8816,-0.0045,0.0147,0.0353
35.6,0.7334,0.037,9.8907,0.0893,-0.0005,-0.0132
35.62,0.628,-0.0504,9.7539,0.0465,0.0162,-0.0055
35.64,0.5882,-0.0425,10.0399,-0.0215,0.0227,0.0338
35.66,0.2564,-0.113,9.7887,-0.079,-0.0365,0.0236
35.68,0.7015,0.0783,9.953,0.0135,-0.0221,0.0249
35.7,0.7736,-0.3189,10.343,0.0721,-0.043,0.0617
35.72,0.4502,-0.3276,9.608,0.1684,-0.0406,0.0066
35.74,0.8667,-0.2858,9.8267,0.3385,0.1447,0.0377
35.76,0.9791,-0.1818,9.4851,0.2578,0.1478,-0.0491
35.78,0.3647,-0.362,9.3243,-0.1385,-0.0461,-0.0871
35.8,0.1821,-0.4253,8.8285,-0.6416,-0.3167,-0.1807
35.82,-0.3556,0.0698,8.9851,-1.0285,-0.3699,-0.2522
35.84,-0.3227,0.4915,10.7984,-0.9456,0.0468,-0.1852
35.86,-0.1646,0.1853,12.7858,-0.3686,0.4807,-0.0742
35.88,0.889,0.5395,13.1127,0.3543,0.4406,0.0696
35.9,1.5202,0.0278,10.8721,0.9632,0.0417,0.1674
35.92,1.4315,-0.0859,8.8528,1.0628,-0.3683,0.2529
35.94,0.8952,-0.4077,8.6423,0.65,-0.3761,0.1973
35.96,0.713,-0.4324,9.1596,0.1825,-0.1208,0.0847
35.98,0.4055,-0.4759,9.1468,-0.2371,0.1073,0.0252
36.0,0.4874,-0.2621,9.709,-0.2532,0.1549,0.039
36.02,0.0811,-0.3567,9.4335,-0.2715,-0.0064,-0.0694
36.04,0.3784,-0.4072,9.837,-0.1099,-0.0589,-0.0213
36.06,0.6341,-0.1962,9.854,-0.0057,-0.1056,-0.0198
36.08,0.7131,-0.0786,9.8717,0.0523,-0.0022,-0.0052
36.1,0.5112,0.0022,9.7821,0.0056,-0.015,0.0322
36.12,0.5044,-0.2227,9.9958,-0.0124,-0.027,-0.0033
36.14,0.6894,-0.2993,10.0773,0.0175,-0.07,-0.0381
36.16,0.7169,0.035,9.9995,0.09,-0.0899,-0.0287
36.18,0.739,0.0896,9.7061,0.291,0.0821,-0.0503
36.2,0.6477,0.1255,9.2196,0.337,0.1389,-0.0109
36.22,0.3332,-0.1406,9.1573,0.2079,0.1153,0.0138
36.24,0.4375,-0.03,8.8811,-0.1676,-0.0963,0.1489
36.26,0.0979,-0.1268,8.516,-0.794,-0.4059,0.2276
36.28,-0.232,-0.2249,8.7901,-1.2488,-0.356,0.2869
36.3,-0.8438,-0.548,10.7995,-1.1751,0.056,0.2992
36.32,-0.4085,-1.0536,13.2274,-0.4579,0.5268,0.0917
36.34,1.2571,-0.6296,13.4165,0.4659,0.5216,-0.1118
36.36,1.7275,-0.5816,10.3452,1.1621,0.0247,-0.2759
36.38,1.4617,-0.4409,8.4725,1.2449,-0.4155,-0.331
36.4,0.4436,-0.2391,8.3344,0.7674,-0.4097,-0.2289
36.42,0.4246,0.0649,8.782,0.2045,-0.1025,-0.1175
36.44,-0.0256,-0.0514,8.5532,-0.2699,0.1445,-0.0119
36.46,0.2818,-0.1148,9.254,-0.3489,0.1286,0.0384
36.48,0.1092,-0.3724,9.3353,-0.2539,0.0244,0.0115
36.5,0.3023,-0.3913,9.743,-0.1062,-0.0993,-0.0028
36.52,0.3106,-0.2123,10.0278,0.0279,-0.1066,-0.0104
36.54,0.5853,-0.2177,9.5417,0.0311,-0.0329,-0.034
36.56,-0.0158,-0.1826,9.441,-0.0095,-0.0203,-0.0074
36.58,0.4056,-0.1959,9.6986,0.0167,-0.026,-0.0048
36.6,0.2522,-0.2509,9.8583,0.0203,-0.0511,0.0163
36.62,0.4402,-0.2692,9.9616,0.0895,-0.0077,0.0754
36.64,0.7187,-0.1509,9.5372,0.1955,-0.0186,0.0449
36.66,0.7399,-0.3132,9.3508,0.3429,0.1195,0.0007
36.68,0.4167,-0.554,8.8257,0.3672,0.1555,-0.0198
36.7,0.3136,-0.5191,8.7161,0.0489,0.0432,-0.0945
36.72,-0.1549,-0.7062,8.1218,-0.6001,-0.3554,-0.2237
36.74,-0.4564,-0.5072,8.3365,-1.1701,-0.4865,-0.2989
36.76,-1.1364,-0.0269,9.479,-1.3907,-0.1749,-0.306
36.78,-0.7602,0.1436,12.3403,-0.8497,0.3349,-0.1731
36.8,0.6029,0.3184,14.1732,0.0785,0.6305,0.0333
36.82,1.8078,0.393,11.8655,0.9779,0.2827,0.1882
36.84,1.7856,-0.2635,8.7736,1.3504,-0.2972,0.2695
36.86,1.2281,-0.4102,8.2373,1.0617,-0.4697,0.3255
36.88,0.5256,-0.4652,8.389,0.4061,-0.2582,0.1657
36.9,0.2137,-0.2715,8.6067,-0.172,0.0133,0.0521
36.92,0.5509,-0.3971,9.3455,-0.3003,0.1742,-0.0161
36.94,0.4234,0.0134,9.6286,-0.2654,0.0921,-0.0317
36.96,0.007,-0.6101,9.8344,-0.1962,-0.031,-0.0373
36.98,0.6679,-0.2823,9.9696,-0.0142,-0.0569,-0.0037
37.0,0.5577,-0.153,9.9058,0.0127,-0.026,-0.0265
37.02,0.3719,-0.1673,9.5954,-0.0033,-0.0553,-0.0362
37.04,0.2621,-0.0606,9.7926,-0.0289,-0.0973,0.0042
37.06,0.4599,-0.1797,10.0584,0.0504,-0.0407,-0.0182
37.08,0.5379,-0.1961,9.8556,0.1241,-0.0407,-0.0364
37.1,0.5841,-0.2483,9.6268,0.1673,0.0485,-0.0833
37.12,1.0316,0.0258,9.4452,0.3406,0.1396,0.0349
37.14,0.6914,-0.042,9.3014,0.144,0.1047,0.0078
37.16,0.763,0.321,9.0675,-0.1523,-0.131,0.1552
37.18,0.5357,-0.0637,9.3762,-0.6699,-0.314,0.238
37.2,-0.5261,-0.379,9.0307,-1.1386,-0.3493,0.2921
37.22,-0.7543,-0.5761,10.6511,-1.0456,0.0737,0.2072
37.24,-0.7098,-1.127,11.9575,-0.4281,0.4466,0.0682
37.26,1.0291,-0.5778,12.7131,0.5183,0.429,-0.0753
37.28,2.1405,-0.1275,10.8814,1.1345,0.0178,-0.2157
37.3,1.5321,-0.3334,8.8829,1.1449,-0.3879,-0.2367
37.32,0.8712,-0.1193,8.9276,0.608,-0.3586,-0.218
37.34,0.7958,0.5118,9.2766,0.1444,-0.0481,-0.1086
37.36,0.2715,-0.073,9.043,-0.2626,0.0946,-0.029
37.38,0.5734,0.1076,9.8443,-0.2406,0.1377,0.0238
37.4,0.2604,-0.1385,10.0273,-0.2082,0.017,0.0126
37.42,0.6247,-0.259,9.7258,-0.135,-0.1058,0.0433
37.44,0.5647,0.1706,9.9248,-0.0015,-0.0757,0.0075
37.46,0.4309,-0.084,9.644,-0.0145,-0.0991,0.0038
37.48,0.5171,-0.1616,9.9327,0.0146,0.0231,0.0247
37.5,0.2474,-0.4551,9.2507,-0.0805,-0.0544,-0.0497
37.52,0.516,0.0867,9.9025,-0.0677,-0.0212,-0.0166
37.54,0.3906,0.0504,9.8184,0.0106,-0.0693,0.046
37.56,1.1128,0.3423,10.5988,0.1705,0.0385,-0.0275
37.58,0.5211,-0.3836,9.3236,0.2382,-0.0159,0.0605
37.6,0.9648,-0.4322,9.5616,0.3424,0.1247,0.0022
37.62,0.7642,-0.3041,9.6327,0.2678,0.0792,-0.057
37.64,-0.1321,-0.624,8.6544,-0.2567,-0.2245,-0.1713
37.66,0.0744,0.0175,8.6573,-0.746,-0.4403,-0.2402
37.68,-0.6007,-0.2174,8.9724,-1.2194,-0.3985,-0.2614
37.7,-0.7708,0.2328,10.691,-1.042,0.078,-0.2145
37.72,-0.1765,0.1137,13.0667,-0.2927,0.5303,-0.0349
37.74,1.5193,0.2808,13.0783,0.5642,0.4086,0.1188
37.76,1.9307,0.234,10.2949,1.1797,-0.0219,0.2049
37.78,1.4345,-0.2215,8.849,1.1772,-0.3692,0.2765
37.8,0.8677,-0.3884,8.7877,0.6488,-0.3586,0.2419
37.82,0.6356,-0.3342,8.9854,0.0956,-0.0454,0.1128
37.84,0.4392,-0.2315,9.4173,-0.1966,0.1177,0.0586
37.86,0.3859,-0.2481,9.3152,-0.2812,0.1224,-0.0234
37.88,0.4199,-0.3114,9.778,-0.2083,0.0341,-0.0413
37.9,0.4284,-0.2097,9.9088,-0.0587,-0.0249,-0.0344
37.92,0.5401,-0.2808,10.1008,0.033,-0.0284,-0.0002
37.94,0.3524,-0.4151,9.868,-0.016,-0.0279,-0.004
37.96,0.5104,-0.2255,9.9873,-0.0133,0.0197,0.006
37.98,0.6219,-0.1882,10.0942,-0.0009,-0.0214,0.0114
38.0,0.396,-0.2891,9.9122,0.0943,-0.044,-0.0237
38.02,0.5409,-0.2639,9.5172,0.1508,-0.056,-0.0506
38.04,0.5675,-0.1745,9.1739,0.3496,0.1295,-0.0366
38.06,0.4371,0.0873,9.0163,0.3504,0.1872,0.0394
38.08,0.4496,0.3558,8.9999,0.073,0.0482,0.1107
38.1,0.0018,0.0821,8.3698,-0.5759,-0.3335,0.2084
38.12,-0.6057,-0.6687,8.1589,-1.138,-0.4737,0.2757
38.14,-0.9465,-0.3673,9.4187,-1.2693,-0.1356,0.275
38.16,-0.8993,-0.6993,12.5057,-0.7793,0.4045,0.1606
38.18,0.3135,-1.0569,13.2908,0.1331,0.5688,-0.0419
38.2,1.9017,-0.5249,11.8865,1.0476,0.2103,-0.2181
38.22,1.8406,-0.4673,8.8954,1.3307,-0.2716,-0.3049
38.24,0.7091,-0.399,8.4429,1.0071,-0.449,-0.2722
38.26,0.8622,0.0817,8.6632,0.4016,-0.2322,-0.1626
38.28,0.3049,-0.081,8.5872,-0.1743,0.0045,-0.069
38.3,0.2219,-0.1386,9.1628,-0.3057,0.1797,0.004
38.32,0.0193,-0.0548,9.484,-0.2049,0.1137,0.0598
38.34,-0.1246,-0.0953,9.9513,-0.1158,-0.0187,0.0378
38.36,0.118,-0.1577,10.0211,-0.0242,-0.0654,0.0352
38.38,-0.0507,-0.4708,9.499,-0.0229,-0.0863,-0.0003
38.4,-0.0922,-0.2697,9.4283,0.0021,-0.056,0.0035
38.42,0.6516,-0.0469,9.9779,0.0391,-0.0231,-0.0233
38.44,0.3681,-0.3655,9.8021,0.0259,-0.1067,0.0261
38.46,0.6043,-0.1026,9.6615,0.161,-0.0042,0.0545
38.48,0.3366,-0.3994,9.3083,0.3031,0.0516,-0.0005
38.5,0.6454,-0.4338,9.3359,0.37,0.188,0.0249
38.52,0.2084,-0.6051,8.8961,0.129,0.0099,-0.1287
38.54,0.3076,-0.5094,8.5553,-0.3787,-0.2439,-0.1975
38.56,-0.3125,-0.2459,8.7341,-0.9599,-0.4554,-0.2401
38.58,-0.5809,0.031,9.259,-1.2052,-0.2024,-0.3208
38.6,-0.6585,0.2395,12.0853,-0.9141,0.2732,-0.1799
38.62,0.4357,0.681,13.9387,-0.0802,0.5738,-0.0407
38.64,0.9916,0.34,11.8367,0.7897,0.3549,0.1664
38.66,1.7408,-0.0718,9.144,1.2392,-0.251,0.2703
38.68,1.2311,-0.391,8.4386,1.0821,-0.4467,0.2728
38.7,0.7135,-0.6543,8.7801,0.5206,-0.2761,0.2145
38.72,0.4567,-0.2981,8.8484,-0.0067,-0.006,0.0941
38.74,0.4114,-0.2772,9.427,-0.2845,0.1498,-0.0113
38.76,0.4488,-0.3352,9.7893,-0.2738,0.0575,-0.039
38.78,0.4082,-0.1083,10.003,-0.1202,-0.0231,-0.0146
38.8,0.4503,-0.142,10.0809,-0.0028,-0.0207,-0.0256
38.82,0.7775,-0.0318,10.2083,0.0361,-0.017,0.0319
38.84,0.3001,0.155,9.8095,0.0223,0.0001,0.0287
38.86,0.4877,-0.3121,9.9429,0.0216,-0.0385,-0.0039
38.88,0.5696,-0.3394,10.2487,0.0308,-0.0059,-0.0276
38.9,0.8495,-0.0281,10.1375,0.0169,-0.0765,-0.0256
38.92,0.7391,-0.0964,10.4432,0.1281,-0.05,-0.0343
38.94,0.8539,-0.1993,9.6445,0.2925,0.0474,-0.0564
38.96,0.6947,0.1663,9.6407,0.4037,0.1328,-0.0233
38.98,0.3984,0.1515,9.0576,0.3029,0.1717,0.0226
39.0,0.8862,0.0381,9.1853,-0.0867,-0.0587,0.1297
39.02,-0.0217,-0.3634,8.4033,-0.8252,-0.426,0.2908
39.04,-0.618,-0.3256,8.8794,-1.3326,-0.458,0.3263
39.06,-1.1273,-0.6372,10.6254,-1.3301,0.0022,0.3336
39.08,0.0335,-0.5249,14.5011,-0.5791,0.5615,0.1477
39.1,0.9339,-1.0837,13.7442,0.4329,0.62,-0.0568
39.12,2.6072,-0.3948,11.6752,1.3487,0.1417,-0.25
39.14,1.5833,-0.2448,8.7739,1.482,-0.4152,-0.3104
39.16,0.9354,0.0944,8.4482,0.9799,-0.4522,-0.2658
39.18,0.5947,0.2279,8.8589,0.3266,-0.1151,-0.1322
39.2,0.3346,0.0838,9.104,-0.212,0.1607,-0.0192
39.22,0.2333,-0.1938,9.308,-0.4015,0.164,-0.0071
39.24,0.2155,0.1968,9.5373,-0.3243,0.0126,0.0419
39.26,0.5863,0.0892,9.8311,-0.0927,-0.0387,0.0284
39.28,0.4329,-0.3121,10.0457,-0.019,-0.0876,0.0078
39.3,0.3735,-0.0999,9.88,0.0233,0.0228,0.0029
39.32,0.4577,-0.4336,9.4944,0.0136,-0.0373,-0.0309
39.34,0.7199,-0.3021,10.2622,0.0483,0.0144,-0.0114
39.36,-0.1333,-0.3385,9.3935,-0.0228,-0.026,-0.0265
39.38,0.6245,-0.0927,10.1763,0.1032,-0.0374,0.049
39.4,0.6226,-0.2148,9.8168,0.1582,-0.0248,0.0139
39.42,0.887,-0.1206,9.2959,0.3126,0.0691,0.0172
39.44,0.609,-0.4278,9.2843,0.3325,0.1015,-0.0195
39.46,0.4846,-0.6313,8.7356,0.0852,0.0258,-0.0814
39.48,0.309,-0.5331,8.7375,-0.3752,-0.2334,-0.1976
39.5,-0.3697,-0.1114,8.5805,-0.9486,-0.4013,-0.2338
39.52,-0.8789,-0.2304,8.9023,-1.2021,-0.2048,-0.2635
39.54,-0.7235,0.1792,12.1212,-0.8491,0.238,-0.1697
39.56,0.1168,0.1971,13.5882,-0.0249,0.5851,-0.0014
39.58,1.6016,0.152,12.0597,0.8636,0.2905,0.1343
39.6,1.5625,-0.0371,9.3427,1.2944,-0.1899,0.3024
39.62,1.1786,-0.2396,8.8413,1.101,-0.4271,0.2332
39.64,0.634,-0.368,8.4754,0.452,-0.2785,0.1988
39.66,0.1671,-0.6069,8.5345,-0.0312,-0.011,0.0292
39.68,0.2503,-0.6068,9.242,-0.3012,0.1638,-0.0113
39.7,0.2126,-0.3551,9.1933,-0.2654,0.0788,-0.0556
39.72,0.2839,-0.2077,9.7688,-0.1217,0.0586,-0.0027
39.74,0.2468,0.1101,10.2109,-0.0059,-0.0698,-0.002
39.76,0.4288,0.0196,10.0064,0.0461,-0.0004,0.0154
39.78,0.495,-0.203,9.4656,0.0271,-0.0276,-0.0131
39.8,0.3592,-0.1486,9.5755,0.0099,-0.0048,-0.0095
39.82,0.5514,-0.3447,9.6409,0.054,0.0417,0.0146
39.84,0.2403,-0.2439,9.7318,-0.0017,-0.0393,0.003
39.86,0.1635,-0.2043,9.4013,0.0462,-0.0225,0.0119
39.88,0.4802,-0.1508,9.6553,0.0555,-0.0036,0.0025
39.9,0.5368,-0.1856,9.7927,0.084,0.0385,0.0528
39.92,0.2793,-0.1733,9.6281,-0.0228,0.0117,0.0329
39.94,0.6183,-0.2601,9.7332,0.0188,0.0138,0.0198
39.96,0.5533,-0.2377,9.7554,0.0241,0.0113,-0.0169
39.98,0.5511,-0.2208,9.6898,0.0062,-0.0193,0.0196
40.0,0.3256,-0.3015,9.5705,0.0094,-0.0577,-0.0292
40.02,0.4999,0.007,9.7909,-0.0168,0.0125,0.0228
40.04,0.2715,-0.6398,9.4169,-0.0169,-0.0134,0.0193
40.06,0.4502,-0.1861,9.9796,0.0328,-0.0121,0.0068
40.08,0.2111,-0.1879,9.6392,-0.0125,-0.0376,-0.0291
40.1,0.4057,-0.2864,9.7474,0.0321,0.0191,-0.0121
40.12,0.618,-0.1035,9.7339,0.016,-0.0354,-0.0028
40.14,0.4656,-0.1027,9.9425,-0.0014,0.0178,0.0112
40.16,0.7441,0.0003,9.8187,0.0241,-0.0039,-0.0219
40.18,0.247,-0.258,9.5578,-0.0103,-0.0424,0.0266
40.2,0.3751,-0.1299,9.4538,0.003,-0.0576,-0.0101
40.22,0.3865,-0.2052,9.9082,0.0446,-0.0537,0.011
40.24,0.2105,-0.1831,9.6929,0.0152,-0.0372,0.0163
40.26,0.5852,0.0114,9.7556,0.042,-0.0032,-0.0175
40.28,0.5467,-0.386,9.6681,0.0288,-0.0107,0.0085
40.3,0.4494,-0.1044,9.8637,0.0321,0.0149,-0.0061
40.32,0.515,-0.2466,9.9496,-0.0047,-0.0289,-0.0191
40.34,0.4543,-0.0586,9.9925,0.063,0.0121,0.0447
40.36,0.5549,-0.2779,9.9604,0.0435,0.025,-0.01
40.38,0.4912,-0.2157,9.9788,0.0307,0.0052,-0.0184
40.4,0.4532,-0.2005,9.9424,0.0342,0.0311,-0.007
40.42,0.1854,-0.2483,9.5536,-0.0137,-0.0301,0.0117
40.44,0.4736,-0.1422,9.7116,-0.0075,-0.0261,-0.0081
40.46,0.4071,-0.3511,9.7967,0.0151,0.0209,0.021
40.48,0.4543,-0.139,9.8461,0.0065,-0.0025,0.0051
40.5,0.3862,-0.2266,9.867,0.0032,0.0108,-0.0248
40.52,0.6207,-0.2846,9.9094,0.0328,-0.0008,0.0113
40.54,0.4902,-0.2578,9.9124,0.0099,-0.0002,0.0211
40.56,0.5015,-0.2459,9.9426,0.0167,0.0003,0.0111
40.58,0.5631,-0.1467,9.7838,0.0078,-0.0158,0.0018
40.6,0.2356,-0.2572,9.4067,-0.0389,-0.0481,-0.0272
40.62,0.4157,-0.3083,9.7315,0.0157,-0.0051,-0.0081
40.64,0.3195,-0.1296,9.5626,-0.0077,-0.0186,-0.0126
40.66,0.3211,-0.1202,9.7235,0.0262,0.0084,-0.0033
40.68,0.3874,-0.1467,9.6757,-0.0159,-0.0223,-0.0187
40.7,0.4913,-0.1929,9.7506,0.005,0.0011,-0.0153
40.72,0.2865,-0.3499,9.6071,-0.0072,-0.0216,-0.0163
40.74,0.2703,-0.3128,9.6018,-0.0046,-0.0269,-0.0158
40.76,0.2903,-0.2764,9.6079,-0.0119,-0.0166,-0.0197
40.78,0.416,-0.1211,9.8327,0.0113,0.0187,0.0089
40.8,0.5788,-0.2325,9.9248,0.0186,0.0015,0.0131
40.82,0.4725,-0.0002,10.0055,0.0361,0.0107,0.0153
40.84,0.4023,-0.1845,9.619,-0.0076,-0.0155,-0.0054
40.86,0.6143,-0.1971,9.8557,0.0194,0.0162,0.0061
40.88,0.1992,-0.3221,9.6586,-0.0176,-0.0231,-0.0147
40.9,0.4481,-0.275,9.8151,0.0107,-0.0,0.0067
40.92,0.3506,-0.2807,9.6269,-0.0319,-0.0227,-0.0143
40.94,0.3397,-0.2068,9.7703,0.0042,0.0005,-0.0044
40.96,0.3839,-0.16,9.6527,-0.0079,-0.0108,-0.0095
40.98,0.4352,-0.1778,9.7325,-0.0052,-0.0081,-0.0052
41.0,0.2725,-0.1894,9.6694,-0.0191,-0.0144,-0.0077
41.02,0.4047,-0.1939,9.8569,0.0034,0.0024,0.0032
41.04,0.4992,-0.2248,9.8465,0.0119,0.0087,0.0055
41.06,0.3499,-0.2948,9.6715,-0.0137,-0.0103,-0.0069
41.08,0.3944,-0.2956,9.7046,-0.0121,-0.0091,-0.0061
41.1,0.3684,-0.2759,9.7599,0.0072,0.0054,0.0036
41.12,0.363,-0.2389,9.7193,-0.0132,-0.0099,-0.0066
41.14,0.4893,-0.1847,9.8253,0.0058,0.0044,0.0029
41.16,0.43,-0.2673,9.7897,0.0002,0.0001,0.0001
41.18,0.4287,-0.2759,9.7594,-0.0003,-0.0003,-0.0002
41.2,0.2913,-0.2911,9.7217,-0.0101,-0.0076,-0.0051
41.22,0.3707,-0.2554,9.6632,-0.0227,-0.017,-0.0114
41.24,0.2878,-0.3254,9.5084,-0.0352,-0.0264,-0.0176
41.26,0.6466,-0.0902,9.965,0.0187,0.014,0.0094
41.28,0.284,-0.3521,9.56,-0.0239,-0.0179,-0.012
41.3,0.4983,-0.1759,9.9501,0.0197,0.0148,0.0098
41.32,0.3434,-0.3296,9.6915,-0.0123,-0.0092,-0.0061
41.34,0.5529,-0.1381,9.8316,0.0064,0.0048,0.0032
41.36,0.1956,-0.334,9.5069,-0.0398,-0.0298,-0.0199
41.38,0.4963,-0.196,9.7829,0.007,0.0053,0.0035
41.4,0.4823,-0.1425,9.8556,0.0055,0.0041,0.0027
41.42,0.429,-0.2955,9.6337,-0.0137,-0.0103,-0.0068
41.44,0.4576,-0.1466,9.8449,0.0054,0.0041,0.0027
41.46,0.5669,-0.0405,9.9448,0.0183,0.0137,0.0091
41.48,0.3612,-0.2962,9.7699,-0.0066,-0.0049,-0.0033
41.5,0.3991,-0.216,9.7803,0.0024,0.0018,0.0012
41.52,0.2252,-0.2821,9.5416,-0.0309,-0.0232,-0.0155
41.54,0.3449,-0.3082,9.6632,-0.0152,-0.0114,-0.0076
41.56,0.5053,-0.2657,9.7774,0.0013,0.001,0.0006
41.58,0.4272,-0.1394,9.7487,-0.0055,-0.0041,-0.0027
41.6,0.3613,-0.2989,9.6805,-0.0199,-0.0149,-0.01
41.62,0.4661,-0.2651,9.7888,-0.005,-0.0038,-0.0025
41.64,0.1808,-0.3318,9.5223,-0.0329,-0.0247,-0.0164
41.66,0.2851,-0.2845,9.3851,-0.0493,-0.037,-0.0247
41.68,0.7069,-0.0619,10.1025,0.0387,0.029,0.0193
41.7,0.3359,-0.3198,9.5465,-0.0352,-0.0264,-0.0176
41.72,0.406,-0.1695,9.8049,-0.0022,-0.0017,-0.0011
41.74,0.3971,-0.2748,9.7855,-0.0052,-0.0039,-0.0026
41.76,0.4096,-0.1694,9.6496,-0.0061,-0.0045,-0.003
41.78,0.5073,-0.2276,9.9027,0.0202,0.0151,0.0101
41.8,0.4839,-0.1933,9.8859,0.011,0.0083,0.0055
41.82,0.3637,-0.2753,9.6233,-0.0186,-0.014,-0.0093
41.84,0.3073,-0.2917,9.6269,-0.0237,-0.0178,-0.0119
41.86,0.2533,-0.2846,9.4972,-0.0378,-0.0283,-0.0189
41.88,0.4542,-0.1317,9.7388,-0.0028,-0.0021,-0.0014
41.9,0.3302,-0.3015,9.6466,-0.016,-0.012,-0.008
41.92,0.3203,-0.3136,9.6718,-0.0114,-0.0086,-0.0057
41.94,0.4379,-0.2713,9.8074,-0.0002,-0.0002,-0.0001
41.96,0.6952,-0.091,10.1948,0.0435,0.0326,0.0217
41.98,0.5985,-0.1331,10.0176,0.0283,0.0213,0.0142
