time_s,acc_x,acc_y,acc_z,gyro_x,gyro_y,gyro_z
0.0,1.0382,-2.3655,9.3394,-0.0,0.0,0.0
0.02,0.9611,-2.3631,9.309,-0.0,0.0,0.0
0.04,0.9873,-2.3224,9.3555,0.0,0.0,-0.0
0.06,0.9342,-2.3614,9.3874,0.0,0.0,-0.0
0.08,0.9965,-2.3119,9.3467,-0.0,-0.0,0.0
0.1,1.0397,-2.4172,9.3572,0.0,0.0,-0.0
0.12,0.887,-2.4438,9.3605,0.0,0.0,0.0
0.14,1.038,-2.3572,9.3263,0.0,-0.0,0.0
0.16,1.0047,-2.3527,9.3829,-0.0,0.0,0.0
0.18,0.9876,-2.3269,9.3377,-0.0,-0.0,0.0
0.2,1.02,-2.3191,9.384,0.0,0.0,0.0
0.22,1.0659,-2.3228,9.4104,0.0,-0.0,0.0
0.24,0.9372,-2.3898,9.3024,-0.0,-0.0,-0.0
0.26,0.9647,-2.3636,9.31,-0.0,-0.0,-0.0
0.28,0.9524,-2.3925,9.297,-0.0,-0.0,-0.0
0.3,1.0168,-2.3474,9.3227,-0.0,-0.0,0.0
0.32,1.0517,-2.3298,9.3719,0.0,-0.0,0.0
0.34,1.0338,-2.3152,9.3283,-0.0,0.0,-0.0
0.36,0.9691,-2.3118,9.3315,0.0,-0.0,0.0
0.38,1.0383,-2.3573,9.2737,0.0,-0.0,0.0
0.4,1.0284,-2.3751,9.3356,-0.0,-0.0,-0.0
0.42,1.0497,-2.4142,9.3426,-0.0,0.0,-0.0
0.44,1.0006,-2.2898,9.3742,-0.0,0.0,0.0
0.46,1.0587,-2.3769,9.4017,-0.0,0.0,-0.0
0.48,1.0729,-2.321,9.3703,0.0,0.0,0.0
0.5,0.9919,-2.3566,9.3208,-0.0,0.0,0.0
0.52,0.9999,-2.3579,9.3381,0.0,0.0,-0.0
0.54,1.0275,-2.2964,9.2992,-0.0,0.0,-0.0
0.56,0.9324,-2.3868,9.3778,-0.0,0.0,0.0
0.58,1.0351,-2.465,9.3283,-0.0,0.0,-0.0
0.6,0.9764,-2.3268,9.3497,0.0,-0.0,0.0
0.62,1.0373,-2.3497,9.3756,0.0,0.0,0.0
0.64,1.0087,-2.3659,9.3446,0.0,-0.0,0.0
0.66,1.0561,-2.335,9.3131,-0.0,-0.0,0.0
0.68,0.999,-2.2969,9.3476,-0.0,-0.0,-0.0
0.7,0.9839,-2.344,9.2517,0.0,-0.0,0.0
0.72,1.0089,-2.2905,9.3689,-0.0,-0.0,0.0
0.74,1.0105,-2.3378,9.2969,0.0,0.0,-0.0
0.76,0.9962,-2.384,9.371,0.0,-0.0,0.0
0.78,0.9597,-2.3366,9.3121,0.0,-0.0,0.0
0.8,0.9902,-2.3171,9.4589,0.0,-0.0,0.0
0.82,1.0323,-2.354,9.3216,-0.0,0.0,0.0
0.84,1.0323,-2.3214,9.333,-0.0,0.0,-0.0
0.86,1.0615,-2.3976,9.238,0.0,0.0,-0.0
0.88,1.0613,-2.3502,9.3482,0.0,0.0,0.0
0.9,0.9862,-2.3906,9.3409,-0.0,-0.0,0.0
0.92,0.9075,-2.344,9.2195,-0.0,0.0,0.0
0.94,0.9677,-2.333,9.3545,0.0,0.0,0.0
0.96,0.9831,-2.4044,9.4005,-0.0,-0.0,-0.0
0.98,0.9912,-2.4134,9.4124,0.0,0.0,0.0
1.0,1.0001,-2.3576,9.2919,-0.0,-0.0,-0.0
1.02,1.0134,-2.3687,9.3504,0.0,0.0,-0.0
1.04,1.0072,-2.301,9.3981,-0.0,0.0,-0.0
1.06,0.9699,-2.3857,9.3879,-0.0,-0.0,-0.0
1.08,1.0206,-2.3689,9.3669,0.0,0.0,0.0
1.1,0.9451,-2.504,9.3929,-0.0,-0.0,0.0
1.12,1.0276,-2.3841,9.3361,0.0,0.0,0.0
1.14,0.9751,-2.4142,9.3503,0.0,0.0,-0.0
1.16,0.9664,-2.4027,9.3603,-0.0,-0.0,0.0
1.18,0.9596,-2.3616,9.2568,-0.0,-0.0,-0.0
1.2,1.0178,-2.3379,9.3423,-0.0,-0.0,0.0
1.22,0.8929,-2.3483,9.4546,0.0,-0.0,-0.0
1.24,0.9867,-2.3289,9.4033,-0.0,-0.0,-0.0
1.26,0.9547,-2.3429,9.3132,0.0,-0.0,-0.0
1.28,0.9894,-2.3465,9.3053,0.0,-0.0,-0.0
1.3,1.0153,-2.3288,9.4325,-0.0,-0.0,-0.0
1.32,0.9561,-2.3676,9.2866,0.0,-0.0,0.0
1.34,0.9997,-2.321,9.3191,0.0,-0.0,-0.0
1.36,0.9708,-2.3734,9.3503,-0.0,0.0,-0.0
1.38,1.0096,-2.3767,9.3688,0.0,-0.0,0.0
1.4,0.9252,-2.3057,9.3356,0.0,-0.0,-0.0
1.42,0.9049,-2.3265,9.4129,0.0,-0.0,-0.0
1.44,1.0113,-2.3957,9.3361,0.0,-0.0,0.0
1.46,0.941,-2.2984,9.3637,0.0,0.0,0.0
1.48,0.9817,-2.3477,9.3457,-0.0,-0.0,0.0
1.5,0.9559,-2.373,9.3276,0.0,-0.0,-0.0
1.52,1.089,-2.3738,9.3234,0.0,0.0,0.0
1.54,0.9684,-2.313,9.3948,0.0,-0.0,-0.0
1.56,0.9813,-2.3941,9.3447,0.0,0.0,0.0
1.58,0.9528,-2.3083,9.3345,-0.0,0.0,0.0
1.6,0.9783,-2.3097,9.3168,-0.0,-0.0,-0.0
1.62,1.0343,-2.3406,9.3369,0.0,0.0,-0.0
1.64,0.9718,-2.3364,9.3838,0.0,0.0,-0.0
1.66,0.9307,-2.3017,9.267,0.0,-0.0,0.0
1.68,1.0271,-2.2605,9.365,0.0,0.0,-0.0
1.7,0.9341,-2.3936,9.3635,0.0,0.0,-0.0
1.72,1.0105,-2.4032,9.3051,0.0,-0.0,0.0
1.74,0.9196,-2.3256,9.2548,0.0,-0.0,0.0
1.76,1.0021,-2.3614,9.4309,0.0,0.0,0.0
1.78,0.9516,-2.3757,9.3456,0.0,0.0,0.0
1.8,1.0306,-2.3239,9.2616,0.0,0.0,-0.0
1.82,0.9838,-2.2921,9.3999,0.0,-0.0,0.0
1.84,1.0039,-2.3146,9.3444,-0.0,-0.0,-0.0
1.86,1.0496,-2.3303,9.324,-0.0,0.0,-0.0
1.88,0.951,-2.3811,9.4031,-0.0,-0.0,-0.0
1.9,1.0033,-2.3269,9.2986,-0.0,0.0,-0.0
1.92,0.9326,-2.3581,9.343,0.0,-0.0,0.0
1.94,1.0707,-2.418,9.4883,0.0,0.0,-0.0
1.96,0.9755,-2.3866,9.37,0.0,-0.0,-0.0
1.98,0.9672,-2.3352,9.2878,-0.0,-0.0,-0.0
2.0,0.9724,-2.3399,9.4004,-0.0,0.0,0.0
2.02,1.0616,-2.3765,9.3273,0.0,0.0,-0.0
2.04,0.956,-2.3279,9.2759,0.0,0.0,-0.0
2.06,0.9907,-2.3838,9.3197,0.0,0.0,-0.0
2.08,1.0261,-2.3104,9.3967,0.0,-0.0,-0.0
2.1,0.9586,-2.322,9.3861,-0.0,-0.0,0.0
2.12,0.9408,-2.2803,9.3428,0.0,0.0,-0.0
2.14,0.9656,-2.2882,9.318,0.0,-0.0,-0.0
2.16,1.065,-2.3525,9.3201,0.0,-0.0,0.0
2.18,0.9445,-2.3462,9.3504,0.0,0.0,-0.0
2.2,1.0105,-2.3128,9.371,-0.0,-0.0,-0.0
2.22,0.9714,-2.4182,9.3055,0.0,-0.0,-0.0
2.24,0.9949,-2.3136,9.2923,0.0,-0.0,-0.0
2.26,1.0373,-2.3435,9.3976,-0.0,-0.0,-0.0
2.28,1.0362,-2.3632,9.3287,-0.0,-0.0,0.0
2.3,0.9332,-2.3589,9.2849,0.0,-0.0,0.0
2.32,0.968,-2.3592,9.3039,-0.0,-0.0,-0.0
2.34,1.0961,-2.3638,9.4286,-0.0,0.0,0.0
2.36,1.0174,-2.3509,9.3915,-0.0,0.0,0.0
2.38,0.9756,-2.3242,9.359,0.0,-0.0,0.0
2.4,0.9545,-2.2729,9.3207,0.0,-0.0,-0.0
2.42,1.0034,-2.3817,9.3614,-0.0,-0.0,-0.0
2.44,1.0293,-2.2953,9.3594,0.0,0.0,0.0
2.46,1.0574,-2.2701,9.358,0.0,0.0,-0.0
2.48,0.972,-2.3385,9.3362,0.0,0.0,-0.0
2.5,0.9775,-2.3039,9.2925,0.0,-0.0,0.0
2.52,0.9685,-2.3502,9.3259,0.0,-0.0,0.0
2.54,1.0189,-2.3035,9.3412,-0.0,-0.0,-0.0
2.56,0.9679,-2.4213,9.3436,-0.0,0.0,0.0
2.58,0.9895,-2.3418,9.3885,-0.0,0.0,-0.0
2.6,1.0319,-2.2882,9.3078,0.0,-0.0,0.0
2.62,1.0153,-2.3803,9.3474,0.0,-0.0,0.0
2.64,1.0288,-2.3957,9.3661,-0.0,0.0,0.0
2.66,1.0228,-2.3185,9.3185,0.0,-0.0,0.0
2.68,1.0076,-2.4047,9.3555,0.0,0.0,-0.0
2.7,0.9722,-2.3279,9.3424,0.0004,-0.0003,0.0001
2.72,1.0091,-2.3686,9.311,0.0007,0.0007,-0.0004
2.74,0.9551,-2.2904,9.3286,-0.0003,0.0,0.0006
2.76,1.0395,-2.3339,9.2534,0.0014,-0.0008,0.0019
2.78,0.968,-2.3625,9.3748,-0.0036,-0.002,-0.0019
2.8,0.9873,-2.4129,9.3383,0.0027,-0.0026,0.0018
2.82,1.0318,-2.4191,9.2718,0.0026,0.0008,-0.0011
2.84,1.0093,-2.3281,9.2996,0.0011,-0.001,0.0005
2.86,0.9752,-2.318,9.3403,-0.0008,-0.0019,0.003
2.88,1.0206,-2.2702,9.3069,0.0046,0.0048,0.0021
2.9,0.9309,-2.2672,9.3458,0.0004,0.0046,0.0026
2.92,0.9875,-2.3459,9.3038,0.0012,0.0042,-0.0063
2.94,1.0841,-2.3828,9.3276,0.0005,0.0036,-0.0004
2.96,0.9506,-2.4068,9.267,0.0033,-0.0001,0.002
2.98,1.0655,-2.3774,9.2797,0.001,0.0014,0.0045
3.0,1.0287,-2.419,9.3809,0.0021,-0.0036,-0.0104
3.02,0.9612,-2.2632,9.3413,0.0043,-0.0067,-0.001
3.04,0.8051,-2.5447,9.3267,0.0061,0.0039,0.0054
3.06,0.9523,-2.2547,9.3051,0.001,0.0016,-0.0019
3.08,1.0696,-2.3077,9.3366,0.009,0.0145,-0.0027
3.1,1.1466,-2.4936,9.3439,0.0166,0.0032,0.0165
3.12,0.9386,-2.3621,9.2567,0.0102,0.0004,-0.0071
3.14,0.9107,-2.4223,9.2375,0.0139,0.0035,0.0018
3.16,0.9746,-2.285,9.3891,-0.0016,0.0074,0.0179
3.18,0.951,-2.423,9.1875,-0.0033,0.0012,-0.0029
3.2,0.9089,-2.2283,9.4237,0.0113,-0.0017,-0.0032
3.22,0.9232,-2.3212,9.3981,0.0137,-0.0344,0.0044
3.24,0.9848,-2.2284,9.3865,-0.0147,-0.0227,0.0072
3.26,0.8566,-2.4805,9.5338,0.0104,-0.0347,0.0045
3.28,1.1778,-2.2562,9.3797,0.0334,-0.0099,0.0072
3.3,1.0419,-2.3271,9.1985,0.0335,0.0365,0.046
3.32,1.0587,-2.4819,9.2666,0.0594,0.143,0.0147
3.34,0.8488,-2.3725,9.0792,0.0504,0.148,-0.0211
3.36,0.8632,-2.4339,8.9927,0.0132,0.0363,-0.0219
3.38,1.0596,-2.3409,8.842,-0.0529,-0.1995,-0.0784
3.4,0.8891,-2.2608,8.7583,-0.1612,-0.4572,-0.1307
3.42,0.5589,-2.1987,9.0003,-0.2618,-0.4407,-0.1605
3.44,0.5164,-2.4711,9.4838,-0.2289,-0.0951,-0.1532
3.46,0.4849,-1.8966,10.375,-0.1865,0.4263,-0.1045
3.48,0.8957,-1.9762,11.3953,-0.019,0.6783,-0.0302
3.5,1.3555,-2.1495,10.4803,0.171,0.5357,0.0782
3.52,1.4889,-2.2118,9.786,0.2556,0.0352,0.1438
3.54,1.2868,-2.3557,8.822,0.2786,-0.3916,0.1632
3.56,1.2926,-2.3943,8.8622,0.2081,-0.5145,0.1737
3.58,1.1502,-2.5735,8.9716,0.0929,-0.3198,0.1161
3.6,0.8773,-2.3509,9.0608,0.0038,0.0094,0.058
3.62,0.8762,-2.3916,9.0819,-0.0413,0.1527,0.0165
3.64,0.7372,-2.1172,9.1805,-0.08,0.1683,-0.0152
3.66,1.1712,-2.2957,9.382,-0.0582,0.0962,-0.0342
3.68,1.0487,-2.1828,9.4735,-0.0182,0.0031,-0.0148
3.7,1.0352,-2.3475,9.4456,-0.0015,-0.0056,-0.0089
3.72,0.9613,-2.087,9.5731,0.0243,-0.0239,-0.0262
3.74,1.1233,-2.3325,9.4698,-0.0051,0.0078,-0.012
3.76,0.9692,-2.1302,9.4873,-0.008,0.0155,-0.0121
3.78,1.0926,-2.0573,9.3305,0.0314,-0.0157,-0.0316
3.8,1.0541,-2.2968,9.4309,0.0175,-0.0439,-0.0383
3.82,1.2483,-2.1608,9.2994,0.0319,0.0087,-0.0053
3.84,1.2849,-2.2092,9.1554,0.03,0.0892,-0.0203
3.86,1.1888,-1.977,9.1785,0.0898,0.1666,-0.0058
3.88,1.044,-2.0579,9.0385,0.1043,0.1753,0.004
3.9,1.0225,-2.0473,9.0088,0.01,0.0369,0.0667
3.92,1.1491,-1.7837,8.9511,-0.073,-0.2511,0.103
3.94,0.9118,-2.157,8.6633,-0.1589,-0.4824,0.1387
3.96,0.4139,-2.3443,8.9658,-0.2259,-0.4219,0.1797
3.98,0.3789,-2.4042,9.4208,-0.2505,-0.0431,0.157
4.0,0.4074,-2.4103,10.124,-0.1823,0.4653,0.0974
4.02,1.0277,-2.1954,11.3004,-0.0056,0.6745,-0.0008
4.04,1.4622,-2.2892,10.8036,0.1603,0.4688,-0.0694
4.06,1.5445,-2.3192,9.3784,0.2596,-0.0017,-0.1334
4.08,1.53,-2.0969,9.0799,0.2586,-0.4234,-0.1614
4.1,1.2182,-2.1202,8.7457,0.1955,-0.4919,-0.1449
4.12,1.2339,-2.1469,9.0806,0.0991,-0.2683,-0.1149
4.14,0.9198,-2.1389,9.0474,-0.0072,-0.0011,-0.0612
4.16,1.2007,-1.8858,9.1895,-0.0411,0.1832,-0.0017
4.18,0.8314,-2.5548,9.3117,-0.0548,0.179,0.0044
4.2,0.9527,-2.3077,9.255,-0.0392,0.0903,0.0124
4.22,1.0234,-2.3526,9.2891,-0.0032,-0.0038,0.0276
4.24,1.0642,-2.3668,9.4351,0.0248,-0.0465,0.0168
4.26,0.8691,-2.3889,9.421,0.0181,-0.0235,0.0201
4.28,0.882,-2.4914,9.1956,0.0302,0.0168,0.0074
4.3,0.796,-2.1891,9.3768,0.0285,-0.0151,0.0273
4.32,0.8436,-2.1683,9.478,-0.0047,-0.0282,-0.0004
4.34,0.8782,-2.5439,9.3976,0.0008,-0.0151,0.019
4.36,1.1421,-2.3942,9.4967,0.0189,0.003,0.0159
4.38,1.1147,-2.467,9.3899,0.0775,0.0825,0.0098
4.4,0.9899,-2.5355,9.2193,0.0641,0.1591,0.007
4.42,0.7373,-2.5333,9.1131,0.0656,0.1682,-0.007
4.44,1.2216,-2.7267,8.757,0.0058,0.0302,-0.0312
4.46,1.1733,-2.8031,8.758,-0.0678,-0.2782,-0.0806
4.48,0.9162,-2.4761,8.8196,-0.18,-0.4632,-0.1178
4.5,0.6343,-2.3744,9.0732,-0.2292,-0.3522,-0.1479
4.52,0.4196,-2.3724,9.3497,-0.2251,0.0255,-0.1494
4.54,0.6628,-2.2457,10.8441,-0.1016,0.4495,-0.0746
4.56,0.8778,-2.3997,10.8193,0.0207,0.6105,0.0074
4.58,1.5376,-2.114,10.4436,0.143,0.4267,0.073
4.6,1.6542,-2.4142,9.4207,0.2548,-0.0273,0.1262
4.62,1.1422,-2.295,8.8174,0.2743,-0.384,0.1473
4.64,0.765,-2.5156,8.6575,0.191,-0.4362,0.1291
4.66,1.0044,-2.7307,9.0155,0.0667,-0.2198,0.0862
4.68,1.1231,-2.6228,8.9372,-0.008,0.0266,0.0351
4.7,0.8273,-2.7047,9.0572,-0.0178,0.1619,0.0336
4.72,0.6604,-2.6327,9.1691,-0.0892,0.1479,-0.0253
4.74,1.0726,-2.6836,9.1393,-0.0335,0.0355,-0.0298
4.76,1.0499,-2.2968,9.264,0.0162,-0.0045,0.0015
4.78,1.0484,-2.6002,9.7359,0.0197,-0.0579,0.011
4.8,1.055,-2.4836,9.5614,-0.0252,-0.0267,-0.0206
4.82,0.9601,-2.4181,9.3951,0.0051,-0.0214,-0.0315
4.84,1.178,-2.5169,9.5592,0.0092,-0.0274,-0.0164
4.86,0.8103,-2.6016,9.4234,-0.001,-0.0427,-0.0195
4.88,0.9008,-2.519,9.2496,0.0652,0.0428,-0.0218
4.9,1.0129,-2.5896,9.2436,0.0437,0.1556,0.0023
4.92,0.798,-2.3034,9.1145,0.0628,0.1927,0.0143
4.94,0.9049,-2.3921,8.9718,0.0069,0.1059,0.0363
4.96,1.0246,-2.3655,9.0406,-0.034,-0.1311,0.0553
4.98,0.9812,-2.3212,8.8507,-0.1523,-0.42,0.1358
5.0,0.5608,-2.3728,8.9104,-0.2345,-0.4914,0.1872
5.02,0.3326,-2.2289,8.9335,-0.2786,-0.2511,0.1743
5.04,0.7241,-2.7656,10.0812,-0.1981,0.2776,0.1177
5.06,0.5432,-2.8471,10.8323,-0.0596,0.6607,0.0593
5.08,1.2447,-2.6257,10.9271,0.102,0.6463,-0.0561
5.1,1.6819,-2.4204,10.245,0.2483,0.2354,-0.1158
5.12,1.5147,-2.3609,8.9817,0.2951,-0.2677,-0.1526
5.14,1.4796,-2.4203,8.7095,0.2413,-0.5195,-0.1728
5.16,1.0859,-2.2794,8.8278,0.1732,-0.3908,-0.1184
5.18,1.1028,-2.3174,9.011,0.0004,-0.1204,-0.0792
5.2,0.7634,-1.8941,9.1366,-0.0358,0.1503,-0.0186
5.22,0.9189,-2.1648,8.979,-0.0393,0.2056,0.0092
5.24,1.1206,-2.1412,9.2029,-0.0436,0.1281,0.0383
5.26,0.8848,-1.8222,9.4689,-0.0082,0.0233,0.0306
5.28,1.1378,-2.3264,9.6837,-0.0054,-0.0488,0.0053
5.3,1.2039,-2.052,9.4951,-0.0075,-0.0597,0.0122
5.32,1.1803,-2.2445,9.4424,-0.0112,-0.0385,0.0108
5.34,0.9874,-2.0454,9.3933,0.0129,-0.0332,0.0155
5.36,1.1799,-2.2423,9.2466,0.0126,-0.0338,0.0134
5.38,1.347,-2.0175,9.1853,0.048,0.0427,0.0226
5.4,1.2895,-2.2041,9.4582,0.0805,0.1378,0.0092
5.42,1.2272,-2.1516,9.1984,0.0505,0.1889,-0.013
5.44,0.9111,-2.1132,9.1892,0.0366,0.0888,-0.0188
5.46,0.8803,-2.2368,8.8939,-0.0324,-0.1239,-0.0573
5.48,1.1622,-2.1821,8.8959,-0.1153,-0.3711,-0.1131
5.5,0.8989,-2.0129,8.9565,-0.1875,-0.427,-0.1563
5.52,0.5774,-2.1669,9.4503,-0.2156,-0.1974,-0.1618
5.54,0.8044,-1.9307,10.4084,-0.2003,0.2868,-0.0951
5.56,1.0092,-1.6782,10.747,-0.0325,0.5606,-0.0361
5.58,1.1839,-2.0115,10.5652,0.0952,0.5558,0.0486
5.6,1.8461,-2.1234,10.2955,0.2348,0.1486,0.102
5.62,1.4448,-2.2216,9.2525,0.237,-0.2721,0.1365
5.64,1.356,-2.3903,8.8992,0.1987,-0.4309,0.1398
5.66,1.1265,-2.2026,8.8943,0.1113,-0.3211,0.0991
5.68,1.2792,-2.7034,8.8562,0.0414,-0.0736,0.0653
5.7,1.0238,-2.4116,8.9642,-0.0204,0.132,0.0179
5.72,1.0914,-2.5,9.1641,-0.0843,0.1862,-0.0137
5.74,1.1164,-2.1549,9.352,-0.0202,0.0665,-0.028
5.76,0.9735,-2.5176,9.2664,-0.0465,-0.0212,-0.0011
5.78,0.896,-2.1918,9.4712,-0.007,-0.0342,-0.0077
5.8,1.0361,-2.3382,9.3557,0.0054,-0.066,-0.0261
5.82,1.0822,-2.5046,9.3904,0.0104,-0.0075,-0.0012
5.84,1.2617,-2.381,9.2927,0.0207,0.0001,0.0158
5.86,1.0464,-2.3874,9.6673,-0.0023,-0.001,0.0052
5.88,0.8437,-2.5258,9.298,0.0507,-0.004,-0.0085
5.9,1.0844,-2.4816,9.3011,-0.0016,-0.0497,0.008
5.92,1.0921,-2.5129,9.7304,0.0087,-0.0048,-0.0143
5.94,0.9941,-2.1797,9.3445,0.0677,0.0338,-0.0382
5.96,1.1391,-2.5189,9.1348,0.1159,0.1707,-0.0275
5.98,1.0132,-2.457,9.1938,0.0651,0.1867,0.0091
6.0,0.9177,-2.5309,8.9251,0.038,0.0503,0.0523
6.02,0.7277,-2.482,8.8973,-0.0657,-0.2219,0.1015
6.04,0.9618,-2.2196,8.868,-0.1687,-0.4567,0.1301
6.06,0.6785,-2.5226,9.0182,-0.2345,-0.4378,0.1434
6.08,0.6469,-2.5835,9.3162,-0.2425,-0.0929,0.1393
6.1,0.6081,-2.5447,10.5834,-0.1962,0.3919,0.0866
6.12,0.9676,-2.9297,11.1251,-0.0315,0.6737,0.0299
6.14,1.0487,-2.6551,10.3278,0.1341,0.5234,-0.0757
6.16,1.5173,-2.8522,9.5653,0.231,0.0513,-0.14
6.18,1.3809,-2.6205,8.9682,0.2526,-0.3726,-0.1612
6.2,1.3638,-2.5124,8.8686,0.1896,-0.4859,-0.1452
6.22,1.0861,-2.6421,8.8944,0.0732,-0.3042,-0.1119
6.24,0.889,-2.4114,9.0509,-0.011,-0.0129,-0.0788
6.26,0.8389,-2.4867,9.3001,-0.0375,0.1693,-0.0265
6.28,0.9168,-2.4631,9.0118,-0.0888,0.1805,0.0193
6.3,0.9012,-2.4282,9.3493,-0.0409,0.084,0.0185
6.32,0.9494,-2.4125,9.4114,-0.0168,-0.0202,0.0177
6.34,0.851,-2.5373,9.3382,0.0148,-0.038,0.0086
6.36,0.9074,-2.4472,9.4733,0.0078,-0.02,0.0186
6.38,0.89,-2.4474,9.4264,0.0211,0.0055,-0.0089
6.4,1.0941,-2.5572,9.3793,0.0273,0.0121,-0.0199
6.42,0.9952,-2.3732,9.8062,0.0186,0.0008,0.0012
6.44,1.0481,-2.3525,9.3507,0.0107,-0.0132,0.0169
6.46,0.8673,-2.2459,9.2396,0.0187,-0.0387,0.0143
6.48,0.8965,-2.3206,9.4003,0.0091,-0.0302,0.0302
6.5,0.9167,-2.3218,9.434,0.041,0.0448,0.0153
6.52,1.059,-2.5683,9.1358,0.065,0.0912,0.007
6.54,1.3388,-2.3126,9.1642,0.0441,0.1354,-0.0014
6.56,1.0983,-2.35,8.8732,0.0389,0.0872,-0.0352
6.58,0.8749,-2.342,9.0168,-0.0309,-0.1243,-0.0701
6.6,1.0924,-2.4324,9.0146,-0.1049,-0.3405,-0.1
6.62,0.6547,-2.2227,9.0262,-0.1935,-0.3642,-0.1226
6.64,0.7428,-2.1755,9.3319,-0.1892,-0.1544,-0.133
6.66,0.961,-1.986,10.3044,-0.1465,0.2339,-0.0723
6.68,1.0134,-1.7901,10.8529,-0.0512,0.5296,-0.0242
6.7,1.1292,-1.4824,10.3018,0.0953,0.4522,0.0286
6.72,1.5831,-2.1957,10.0463,0.211,0.1146,0.0986
6.74,1.3105,-1.9322,9.0037,0.2131,-0.2385,0.1238
6.76,1.24,-2.3637,8.8431,0.1603,-0.395,0.101
6.78,1.0774,-2.4496,8.9581,0.099,-0.3017,0.0828
6.8,1.0356,-2.1194,8.9521,0.0456,-0.0651,0.0414
6.82,0.9899,-2.3806,9.1301,-0.011,0.1054,0.0322
6.84,1.0448,-2.1167,9.1977,-0.073,0.1496,-0.0051
6.86,0.7546,-2.4226,9.2207,-0.0123,0.0728,-0.0301
6.88,1.2207,-2.216,9.3294,-0.0465,-0.0055,-0.0292
6.9,0.6485,-2.2133,9.4407,0.0119,-0.0212,-0.0145
6.92,1.0605,-2.2753,9.5041,0.0235,-0.0206,0.0038
6.94,1.1179,-2.2961,9.3621,0.0117,-0.0393,0.0134
6.96,1.2598,-2.0732,9.3308,-0.0085,-0.0121,-0.0135
6.98,1.1703,-2.021,9.4465,0.0028,-0.0393,-0.0246
7.0,1.1461,-2.1416,9.564,0.0275,-0.001,-0.0018
7.02,1.1877,-2.2681,9.2437,0.0209,0.0816,-0.0265
7.04,1.4499,-2.2205,9.4088,0.0876,0.1555,-0.0032
7.06,1.0003,-1.9768,9.1183,0.0479,0.1568,0.022
7.08,1.2342,-1.9847,9.0325,0.0187,0.0359,0.0607
7.1,1.0743,-2.2028,8.8317,-0.058,-0.2701,0.0904
7.12,0.9057,-2.421,8.9282,-0.1605,-0.449,0.1209
7.14,0.652,-2.3247,9.0476,-0.1922,-0.3819,0.1503
7.16,0.4992,-2.3809,9.6135,-0.2163,0.0025,0.1216
7.18,0.4824,-2.6353,10.6497,-0.146,0.4701,0.079
7.2,0.9194,-2.5497,10.7542,0.0244,0.6062,-0.0192
7.22,1.7947,-2.4073,10.4308,0.1534,0.3856,-0.1002
7.24,1.5923,-2.4992,9.4858,0.269,-0.0733,-0.1411
7.26,1.3604,-2.3846,8.9885,0.2262,-0.392,-0.1526
7.28,1.1999,-2.2046,8.7909,0.163,-0.4219,-0.1263
7.3,0.9181,-2.364,8.8669,0.0695,-0.2365,-0.0858
7.32,1.0203,-2.1317,9.0653,0.0024,0.0312,-0.0605
7.34,0.9667,-2.6739,9.1631,-0.0214,0.1902,-0.0076
7.36,0.7822,-2.3806,9.0575,-0.0546,0.1307,0.0123
7.38,0.8604,-2.159,9.386,-0.0333,0.0481,0.022
7.4,0.9764,-2.6341,9.4199,-0.0109,-0.0068,0.0359
7.42,0.9687,-2.4485,9.3889,0.0178,-0.0576,0.0122
7.44,1.1064,-2.4698,9.3865,0.0354,-0.0241,0.0176
7.46,0.9654,-2.3918,9.301,-0.0333,-0.0155,-0.011
7.48,0.8727,-2.5828,9.3392,0.0397,-0.0084,0.0089
7.5,1.1594,-2.4332,9.3376,-0.0068,-0.0227,0.0085
7.52,0.914,-2.6776,9.454,0.0264,-0.0152,-0.0001
7.54,1.0312,-2.5228,9.4084,0.0256,-0.0241,0.0215
7.56,1.1527,-2.5677,9.2425,0.0424,0.0308,0.0146
7.58,1.1104,-2.603,9.2621,0.0738,0.1228,0.001
7.6,1.1432,-2.6294,9.0585,0.0918,0.1938,-0.0084
7.62,0.9201,-2.7221,9.046,0.0516,0.0924,-0.0338
7.64,0.8165,-2.8093,8.9567,-0.0188,-0.095,-0.0761
7.66,0.6962,-2.5372,8.7435,-0.1442,-0.3978,-0.1395
7.68,0.5531,-2.3259,8.89,-0.2197,-0.4809,-0.1333
7.7,0.3579,-2.4299,9.1966,-0.2401,-0.2297,-0.1628
7.72,0.1507,-2.2492,10.0725,-0.1831,0.239,-0.1109
7.74,1.1639,-2.3106,11.3971,-0.0988,0.605,-0.0358
7.76,0.9673,-2.3933,10.7693,0.1192,0.5827,0.0645
7.78,1.4751,-2.3664,9.9672,0.2435,0.1878,0.1282
7.8,1.613,-2.3431,9.3251,0.2612,-0.2249,0.1612
7.82,1.481,-2.5205,8.8014,0.2236,-0.4796,0.1512
7.84,0.9427,-2.5595,8.6997,0.1446,-0.3732,0.1215
7.86,1.1276,-2.2202,8.9966,0.0425,-0.0939,0.0664
7.88,0.9921,-2.6458,8.8996,-0.0378,0.1037,0.0223
7.9,0.7884,-2.5699,9.2145,-0.0537,0.1883,-0.0208
7.92,0.9222,-2.3508,9.4007,-0.0685,0.1122,-0.0135
7.94,0.8659,-2.4923,9.3056,-0.0171,0.0274,-0.0123
7.96,0.9525,-2.189,9.4235,0.018,-0.033,0.0062
7.98,1.0044,-2.3227,9.4144,0.0241,-0.042,-0.0054
8.0,0.9535,-2.4987,9.5054,0.009,-0.004,0.0065
8.02,1.2027,-2.3964,9.2969,-0.0042,0.0144,-0.0207
8.04,1.1283,-2.2005,9.1268,0.0406,-0.0157,0.0168
8.06,1.2457,-2.2242,9.3896,0.021,-0.0288,-0.0045
8.08,1.1727,-2.1895,9.3822,0.0309,-0.0074,-0.0036
8.1,1.0294,-2.211,9.5035,0.0021,-0.0034,0.0028
8.12,1.0766,-2.296,9.523,0.0099,-0.0321,-0.0119
8.14,1.0404,-2.1115,9.3647,0.0209,-0.052,-0.0134
8.16,1.3832,-2.3775,9.5157,0.0756,-0.0206,-0.052
8.18,1.1795,-2.2463,9.3342,0.0632,0.0727,-0.0026
8.2,0.965,-2.0192,9.14,0.0608,0.1816,-0.0239
8.22,1.166,-1.9251,8.9966,0.1101,0.1772,-0.0117
8.24,1.1738,-1.9385,9.2542,0.0011,-0.0086,0.0689
8.26,0.7414,-2.3023,8.7971,-0.0794,-0.2721,0.0999
8.28,0.9767,-2.206,8.9349,-0.1804,-0.4788,0.1378
8.3,0.8828,-2.3204,9.0785,-0.2398,-0.3723,0.1493
8.32,0.3347,-2.1938,9.4399,-0.2353,0.0198,0.1254
8.34,0.4328,-2.397,10.3187,-0.147,0.478,0.061
8.36,1.0492,-2.5949,11.17,-0.0067,0.6575,0.0063
8.38,1.6501,-2.216,10.3665,0.1722,0.3919,-0.075
8.4,1.8715,-2.2226,9.3737,0.2379,-0.0292,-0.1363
8.42,1.7141,-2.0089,9.0604,0.2679,-0.4026,-0.1466
8.44,1.2488,-2.1171,8.9481,0.158,-0.4683,-0.1235
8.46,1.2276,-1.9937,8.937,0.0557,-0.2237,-0.0895
8.48,1.0725,-1.8385,9.0675,-0.0123,0.0484,-0.0405
8.5,1.1016,-2.1211,9.043,-0.0516,0.1814,-0.015
8.52,1.2597,-2.1089,9.1261,-0.02,0.1529,0.0139
8.54,1.0287,-2.0681,9.3222,-0.0227,0.0596,0.0294
8.56,0.9721,-2.1679,9.1617,-0.0252,-0.0264,0.0132
8.58,1.1599,-2.3856,9.3584,-0.002,-0.0241,0.005
8.6,0.9854,-2.4051,9.7344,-0.0225,-0.0431,-0.0089
8.62,1.3038,-2.4926,9.4534,0.029,-0.0222,-0.0005
8.64,1.1257,-2.4322,9.391,0.0163,0.0169,0.0168
8.66,0.9152,-2.2261,9.3127,0.0127,0.0218,0.007
8.68,0.8475,-2.3462,9.3429,0.0004,0.0144,-0.024
8.7,0.9262,-2.4395,9.4002,-0.0061,-0.0037,0.0191
8.72,1.3269,-2.3169,9.3893,0.0187,-0.0106,0.0007
8.74,1.1297,-2.3442,9.3273,0.0191,-0.0273,0.0074
8.76,1.1416,-2.518,9.3941,0.0065,-0.0412,0.0136
8.78,1.0018,-2.4055,9.3954,0.0625,-0.0132,0.0029
8.8,1.2024,-2.5063,9.5352,0.0741,0.0471,0.0182
8.82,1.174,-2.5546,9.1786,0.111,0.1349,0.0168
8.84,1.0478,-2.858,9.1494,0.1267,0.2085,-0.0241
8.86,0.971,-2.4865,8.86,0.0571,0.1253,-0.0227
8.88,1.0179,-2.5016,8.8971,-0.0577,-0.1482,-0.0932
8.9,0.9415,-2.7836,8.821,-0.1266,-0.4561,-0.1283
8.92,0.755,-2.5666,8.6129,-0.2418,-0.5255,-0.1864
8.94,0.3781,-2.5447,9.2079,-0.3013,-0.2498,-0.1672
8.96,0.4003,-2.5717,9.9273,-0.2181,0.2855,-0.1114
8.98,0.83,-2.2874,11.4915,-0.0701,0.7091,-0.039
9.0,0.9685,-2.1551,11.2765,0.0977,0.6761,0.0601
9.02,1.3194,-2.2513,9.7123,0.2428,0.2264,0.1256
9.04,1.4735,-2.3876,9.2722,0.3008,-0.2955,0.1534
9.06,1.2746,-2.6277,8.7227,0.2684,-0.532,0.1845
9.08,1.1087,-2.5049,8.6556,0.1439,-0.4056,0.1427
9.1,0.9647,-2.5994,8.8446,0.0597,-0.0996,0.0589
9.12,0.8659,-2.7332,8.771,-0.0478,0.1354,0.0293
9.14,0.9069,-2.7556,8.9351,-0.057,0.2306,-0.0107
9.16,1.0721,-2.6552,9.2942,-0.0332,0.1324,-0.0265
9.18,0.7789,-2.5017,9.1227,-0.0466,0.0303,-0.0204
9.2,0.7345,-2.5128,9.4604,-0.0148,-0.0284,-0.0374
9.22,0.9632,-2.5081,9.4225,0.0071,-0.0432,-0.0026
9.24,0.9255,-2.3991,9.3263,0.0159,-0.0121,0.0024
9.26,1.0433,-2.5365,9.1768,-0.0175,0.0135,0.0034
9.28,0.9752,-2.733,9.4236,0.0149,-0.025,0.0027
9.3,1.0844,-2.565,9.7166,0.0124,-0.0487,-0.0089
9.32,0.9281,-2.1284,9.3262,0.0215,-0.0301,-0.013
9.34,1.2095,-2.1799,9.3451,0.0295,0.0346,-0.0395
9.36,1.0642,-2.4788,9.4005,0.0812,0.1306,-0.0189
9.38,1.0442,-2.2654,9.1404,0.107,0.198,-0.0057
9.4,1.0524,-1.9998,9.2605,0.0129,0.1207,0.0384
9.42,0.9627,-2.2454,8.9822,-0.0331,-0.1109,0.0721
9.44,1.0649,-2.5012,8.9279,-0.1217,-0.3653,0.1162
9.46,0.428,-2.1972,8.944,-0.1966,-0.4835,0.1678
9.48,0.4384,-2.5305,9.372,-0.2492,-0.2517,0.1554
9.5,0.5975,-2.7577,10.0571,-0.1915,0.2046,0.1123
9.52,0.7163,-2.4659,10.4654,-0.0738,0.5805,0.0565
9.54,1.1293,-2.4614,11.0589,0.073,0.5907,-0.0346
9.56,1.6112,-2.559,10.3221,0.1847,0.2497,-0.1035
9.58,1.4089,-2.3688,9.1664,0.2726,-0.2137,-0.1456
9.6,1.3385,-2.0749,8.9184,0.2049,-0.4594,-0.1647
9.62,1.2528,-2.2614,8.9768,0.1358,-0.3695,-0.1255
9.64,1.0709,-2.1395,9.0567,0.0515,-0.0911,-0.0797
9.66,1.0174,-1.9689,9.0427,-0.0367,0.1298,-0.022
9.68,0.8071,-2.0673,9.0536,-0.0645,0.1762,0.0075
9.7,0.82,-2.1173,9.1361,-0.0709,0.1173,0.0281
9.72,1.1051,-2.1134,9.4221,-0.0424,0.018,0.027
9.74,0.8377,-2.2375,9.4683,-0.0106,-0.0204,0.0167
9.76,1.0941,-2.1657,9.5679,0.0203,-0.0316,0.017
9.78,1.0003,-2.2158,9.298,0.0036,-0.029,-0.0187
9.8,1.2992,-2.2629,9.2961,-0.006,0.0039,0.0135
9.82,1.0564,-2.1583,9.1278,-0.0169,-0.0196,0.0161
9.84,1.1344,-2.2007,9.3685,-0.0,-0.0318,0.0039
9.86,1.0344,-2.0928,9.4701,0.0174,-0.0259,0.0199
9.88,1.1679,-2.3092,9.2822,0.0235,0.0084,0.0095
9.9,1.0027,-2.0723,9.4226,0.054,0.0917,0.0025
9.92,1.0584,-2.3451,9.1001,0.0846,0.1962,0.0201
9.94,1.162,-2.6453,9.2636,0.0874,0.1598,-0.0223
9.96,1.2065,-2.3527,8.891,-0.0153,-0.0662,-0.0496
9.98,1.1117,-2.1483,8.7413,-0.119,-0.337,-0.1264
10.0,0.6248,-2.2152,8.771,-0.1906,-0.4641,-0.1498
10.02,0.3297,-2.0315,9.0449,-0.2374,-0.3075,-0.1662
10.04,0.6321,-2.1346,9.8219,-0.2211,0.1434,-0.1192
10.06,1.027,-1.9429,11.1603,-0.0938,0.5495,-0.0587
10.08,1.1779,-2.0118,10.9374,0.062,0.6336,0.013
10.1,1.3715,-2.1933,9.9788,0.1927,0.3088,0.1015
10.12,1.3371,-1.9863,9.3057,0.2752,-0.1732,0.1524
10.14,1.0658,-2.3857,8.9333,0.2531,-0.4606,0.1671
10.16,1.0572,-2.3433,8.7205,0.1525,-0.4113,0.1333
10.18,1.0728,-2.5479,8.9891,0.0448,-0.1566,0.0913
10.2,0.8481,-2.6173,9.1324,-0.0094,0.0857,0.0447
10.22,0.8081,-2.4693,9.2071,-0.0491,0.2018,-0.0063
10.24,1.0985,-2.406,9.1087,-0.0757,0.1322,-0.0214
10.26,0.8464,-2.2677,9.3727,-0.0346,0.0502,-0.0134
10.28,0.8761,-2.6283,9.3507,-0.0265,-0.0253,-0.0115
10.3,1.1592,-2.4935,9.5824,0.0199,-0.0511,0.0116
10.32,1.1768,-2.4765,9.6977,0.0135,-0.0323,0.0037
10.34,1.1084,-2.4528,9.3686,0.0128,-0.02,0.002
10.36,0.9491,-2.6089,9.1477,0.0303,-0.0143,0.0009
10.38,1.1691,-2.5543,9.4255,-0.0014,-0.0413,0.0182
10.4,0.8195,-2.5083,9.5266,0.0208,-0.0311,-0.0128
10.42,1.111,-2.5346,9.5567,0.0637,-0.0138,-0.0403
10.44,0.9565,-2.4591,9.3753,0.0468,0.0093,-0.0246
10.46,1.0479,-2.5565,9.075,0.0784,0.1009,-0.0205
10.48,0.8488,-2.4426,9.18,0.0788,0.1732,-0.0058
10.5,0.7711,-2.4541,8.9237,0.0548,0.1195,0.0311
10.52,0.8509,-2.6271,8.9961,0.0197,-0.0833,0.0824
10.54,0.7421,-2.6573,9.1442,-0.1053,-0.3086,0.1165
10.56,0.7451,-2.4491,8.8016,-0.187,-0.4375,0.1516
10.58,0.3551,-2.7538,9.0649,-0.228,-0.2654,0.13
10.6,0.2871,-2.8179,9.7609,-0.1922,0.1425,0.1155
10.62,0.9496,-2.9372,11.0595,-0.0718,0.5296,0.0654
10.64,1.0677,-2.7854,10.6529,0.0302,0.5768,-0.0321
10.66,1.21,-2.9794,9.8112,0.1631,0.2695,-0.1041
10.68,1.7053,-2.6324,9.2014,0.2191,-0.1599,-0.1505
10.7,1.421,-2.53,9.0039,0.2335,-0.4522,-0.1385
10.72,0.9166,-2.2969,8.5978,0.1157,-0.3885,-0.1077
10.74,1.0496,-2.5038,9.0433,0.065,-0.1172,-0.0733
10.76,0.7378,-2.1393,8.9051,0.0056,0.1146,-0.025
10.78,0.869,-2.4022,9.0586,-0.061,0.1849,0.0086
10.8,1.1448,-2.1144,9.5026,-0.0529,0.1262,0.0426
10.82,1.1361,-2.1082,9.3779,-0.0355,0.0307,0.033
10.84,0.9493,-2.4491,9.3932,0.0113,-0.0301,0.0303
10.86,0.9652,-2.1898,9.3408,-0.0011,-0.047,0.018
10.88,0.9177,-2.4592,9.4397,0.0204,-0.0219,0.0244
10.9,0.9963,-2.4984,9.1984,0.0386,0.0044,0.004
10.92,0.9307,-2.3029,9.2127,0.0005,-0.0112,0.0045
10.94,1.0415,-2.5822,9.6467,0.0219,-0.008,-0.0066
10.96,1.0798,-2.1954,9.4529,0.0276,-0.0469,0.011
10.98,1.5365,-2.3378,9.2744,0.0502,-0.0263,0.0204
11.0,0.9927,-2.5145,9.2742,0.0627,0.0346,0.0253
11.02,0.82,-2.4051,9.019,0.0846,0.1347,0.0182
11.04,1.2462,-2.1512,8.9513,0.0614,0.1847,0.0083
11.06,1.0612,-2.5053,8.833,0.0611,0.095,-0.0191
11.08,1.1302,-2.3552,8.8836,-0.0263,-0.1862,-0.0922
11.1,0.7474,-2.3224,8.9192,-0.1627,-0.4202,-0.1263
11.12,0.8379,-2.2608,8.7565,-0.2469,-0.4876,-0.1644
11.14,0.6488,-2.3769,9.3574,-0.2713,-0.1878,-0.1451
11.16,0.2336,-1.7008,10.0343,-0.1636,0.3023,-0.1281
11.18,0.9804,-1.9776,11.2623,-0.043,0.6583,-0.0295
11.2,1.6825,-2.1647,11.0412,0.1119,0.6011,0.06
11.22,1.4394,-1.9687,9.5722,0.2039,0.1394,0.133
11.24,1.5991,-2.0659,8.9183,0.2604,-0.2978,0.1582
11.26,1.2752,-2.0545,8.7471,0.2345,-0.4946,0.1466
11.28,1.0896,-2.2023,8.8918,0.1325,-0.3375,0.1139
11.3,1.0904,-2.089,8.8397,0.0203,-0.0719,0.0846
11.32,1.2463,-2.0123,8.9922,-0.0305,0.1469,0.0131
11.34,1.0588,-2.2002,9.0131,-0.0678,0.1769,-0.0162
11.36,0.8372,-2.3577,9.2391,-0.0881,0.1138,-0.0186
11.38,0.89,-2.0921,9.3441,-0.0278,-0.0196,-0.0346
11.4,1.1072,-2.3928,9.4189,-0.0255,-0.0395,-0.0205
11.42,1.2565,-2.1475,9.4748,0.0323,-0.0344,-0.0152
11.44,0.9283,-2.1317,9.2144,0.0315,-0.0338,-0.0221
11.46,0.8404,-2.2906,9.4339,-0.0111,-0.0067,0.007
11.48,1.1917,-2.0842,9.4454,-0.0023,-0.0078,0.0079
11.5,1.1114,-2.2244,9.33,-0.0015,-0.0311,-0.0203
11.52,1.3423,-2.213,9.3275,0.0128,-0.0243,-0.0116
11.54,1.1613,-2.1827,9.3857,0.0664,0.0558,-0.0212
11.56,1.0155,-2.3659,9.1259,0.0519,0.1466,-0.0205
11.58,1.0789,-2.4189,9.0413,0.1007,0.1802,0.0098
11.6,1.1337,-2.1336,9.0446,0.0583,0.1129,0.0386
11.62,0.9899,-2.3159,9.0413,-0.0345,-0.1079,0.0878
11.64,0.856,-2.1773,8.9071,-0.1373,-0.3926,0.1159
11.66,0.5821,-2.5084,8.8908,-0.2313,-0.4467,0.1619
11.68,0.3912,-2.5441,9.1736,-0.2535,-0.2039,0.1392
11.7,0.5267,-2.9664,10.1027,-0.1877,0.2955,0.1067
11.72,0.7106,-2.6042,10.6825,-0.0691,0.6288,0.0255
11.74,1.3517,-2.5124,11.0138,0.0778,0.5566,-0.0716
11.76,1.5259,-2.3729,10.0418,0.2041,0.1475,-0.1371
11.78,1.386,-2.5988,9.001,0.289,-0.2973,-0.1473
11.8,1.0616,-2.5849,8.9042,0.2247,-0.4722,-0.1539
11.82,1.2575,-2.4348,8.8564,0.0991,-0.3511,-0.1224
11.84,1.1161,-2.2238,8.9649,0.0292,-0.0568,-0.0715
11.86,0.9264,-2.5956,8.8392,-0.0476,0.1428,-0.0179
11.88,0.8445,-2.5164,9.0253,-0.0609,0.1855,-0.0022
11.9,0.7616,-2.2616,9.211,-0.0644,0.111,-0.0074
11.92,0.6797,-2.4176,9.3897,-0.0311,0.016,0.0362
11.94,0.9648,-2.4854,9.6859,-0.0008,-0.0084,0.0279
11.96,1.0422,-2.3869,9.4664,0.0344,-0.0469,0.021
11.98,0.6644,-2.3936,9.4032,0.0071,-0.0162,0.0059
12.0,1.0714,-2.5454,9.4638,-0.0174,-0.0213,0.0024
12.02,0.9765,-2.6269,9.444,0.0422,-0.0172,0.0026
12.04,1.0679,-2.4244,9.4901,0.0647,-0.0087,0.031
12.06,0.9551,-2.7092,9.4652,0.0602,0.0344,0.0246
12.08,1.0146,-2.7,9.303,0.0908,0.1334,0.0194
12.1,0.8072,-2.5327,9.1434,0.0832,0.1806,0.0042
12.12,0.9212,-2.8251,9.1304,0.0482,0.0861,-0.0502
12.14,1.0596,-2.8261,8.7206,-0.0775,-0.183,-0.091
12.16,0.7313,-2.6347,8.898,-0.1268,-0.3976,-0.1046
12.18,0.6252,-2.24,8.9022,-0.195,-0.4285,-0.1518
12.2,0.3383,-2.5787,9.3811,-0.2526,-0.1608,-0.1578
12.22,0.2056,-2.4611,9.867,-0.1598,0.2968,-0.1036
12.24,0.865,-2.1038,11.0628,-0.0322,0.6179,-0.0099
12.26,1.4151,-2.3887,10.9241,0.13,0.5338,0.061
12.28,1.3709,-2.3124,9.6053,0.2684,0.1373,0.1308
12.3,1.5376,-2.4107,8.8251,0.2436,-0.3167,0.1408
12.32,1.0492,-2.0572,8.8605,0.2153,-0.4634,0.1401
12.34,0.9824,-2.455,8.6294,0.114,-0.3279,0.1207
12.36,1.2143,-2.6543,8.8365,0.0003,-0.0838,0.0463
12.38,0.9855,-2.7159,8.979,-0.0403,0.1464,0.0236
12.4,1.0054,-2.2611,9.1114,-0.0813,0.1781,-0.0054
12.42,0.7644,-2.6142,9.3082,-0.0504,0.1019,-0.011
12.44,0.755,-2.3488,9.2931,-0.05,0.0121,-0.027
12.46,0.8589,-2.2658,9.4279,-0.0133,-0.0438,-0.0165
12.48,0.8659,-2.3412,9.4514,0.0501,-0.0331,-0.0184
12.5,1.14,-2.1762,9.3861,0.0289,-0.0389,0.0041
12.52,1.0309,-2.3319,9.2726,-0.0019,-0.0284,-0.0204
12.54,0.9744,-2.2346,9.3485,0.0486,-0.0298,-0.0175
12.56,1.1532,-2.3216,9.4967,0.0652,0.0098,-0.0171
12.58,1.08,-2.0814,9.185,0.0898,0.0906,-0.0323
12.6,1.0613,-2.3529,9.0915,0.0668,0.1435,-0.0078
12.62,0.9283,-2.1173,9.0778,-0.0037,0.111,0.0384
12.64,0.9105,-2.2302,8.9499,0.0015,-0.0835,0.063
12.66,1.1433,-2.1143,8.8169,-0.0875,-0.359,0.1199
12.68,0.6454,-2.344,8.9446,-0.2033,-0.4121,0.1259
12.7,0.7338,-2.0803,9.1231,-0.2582,-0.2359,0.1243
12.72,0.4597,-2.7111,9.5842,-0.1553,0.1922,0.0858
12.74,0.6292,-2.3318,10.8057,-0.0731,0.5404,0.0425
12.76,1.5269,-2.43,11.144,0.0483,0.537,-0.0399
12.78,1.8779,-2.5279,9.7261,0.1962,0.2076,-0.1063
12.8,1.5775,-2.1998,9.2304,0.2212,-0.2002,-0.1271
12.82,1.0621,-2.0419,9.0438,0.213,-0.4336,-0.1521
12.84,1.2003,-2.2774,8.9515,0.1206,-0.3675,-0.0974
12.86,1.1788,-1.9957,9.0692,0.0656,-0.1139,-0.0603
12.88,0.9932,-2.22,9.0286,-0.0059,0.107,-0.0409
12.9,1.1521,-2.3556,9.0365,-0.074,0.176,-0.008
12.92,1.1166,-2.1751,9.2543,-0.0308,0.1366,0.0363
12.94,0.9984,-2.4949,9.2884,-0.0411,0.0192,0.0147
12.96,1.0033,-2.2496,9.4468,-0.0321,-0.0263,-0.0031
12.98,0.6751,-2.2669,9.4565,-0.0117,-0.0397,0.004
13.0,1.0554,-2.0828,9.4953,0.0142,-0.0196,-0.0012
13.02,1.1376,-2.148,9.3738,0.018,-0.028,0.0208
13.04,1.0115,-2.5116,9.3545,0.0333,0.0001,0.0339
13.06,0.9435,-2.2786,9.3783,0.0545,0.0033,0.0069
13.08,1.0291,-2.4872,9.2209,0.0567,0.1221,0.023
13.1,1.1568,-2.4558,9.2988,0.0653,0.1563,-0.0095
13.12,0.8243,-2.5366,9.0169,0.0606,0.1045,-0.039
13.14,0.7525,-2.6196,8.7294,-0.0346,-0.1413,-0.0718
13.16,1.0847,-2.4245,8.9052,-0.1166,-0.3672,-0.1085
13.18,0.6131,-2.5286,8.9229,-0.2046,-0.4295,-0.1488
13.2,0.2461,-2.5011,9.2476,-0.2123,-0.1541,-0.1456
13.22,-0.017,-2.3203,9.8211,-0.1662,0.2631,-0.0789
13.24,0.6437,-2.1537,10.7949,-0.0538,0.5667,-0.0319
13.26,1.2811,-2.3203,11.0803,0.1064,0.5253,0.0438
13.28,1.3376,-2.4876,9.7618,0.2278,0.1434,0.1041
13.3,1.3127,-2.2452,9.2899,0.2124,-0.2625,0.1486
13.32,1.235,-2.4972,9.0728,0.1945,-0.447,0.1246
13.34,1.0774,-2.5921,8.7843,0.1238,-0.3319,0.0872
13.36,1.0514,-2.4564,9.0775,0.0046,-0.0393,0.0599
13.38,0.9476,-2.659,8.9915,-0.0312,0.1146,0.0126
13.4,0.8165,-2.612,9.1255,-0.0765,0.1777,-0.0092
13.42,0.7443,-2.7691,9.3111,-0.0499,0.1144,-0.0133
13.44,0.948,-2.8054,9.6075,-0.0073,0.0034,-0.0296
13.46,0.7587,-2.4362,9.23,0.0187,-0.0109,-0.0154
13.48,1.1117,-2.8278,9.3223,0.0064,-0.0542,-0.0172
13.5,0.7421,-2.7795,9.2541,0.0346,-0.0047,-0.0042
13.52,1.1574,-2.639,9.2612,-0.0276,-0.0099,-0.0087
13.54,0.8888,-2.5173,9.3795,0.0125,0.0143,-0.0229
13.56,0.8801,-2.4718,9.3874,0.0031,-0.0019,-0.0006
13.58,1.0269,-2.6295,9.362,0.0097,-0.01,-0.0224
13.6,0.9503,-2.3337,9.4786,0.0147,-0.0155,-0.0213
13.62,1.1881,-2.2868,9.1974,0.0347,0.0583,-0.0274
13.64,0.9022,-2.4864,9.2714,0.0985,0.1411,-0.0377
13.66,0.9924,-2.3683,9.2086,0.0989,0.1709,-0.0007
13.68,1.1237,-2.5069,9.034,0.0417,0.064,0.0278
13.7,0.9515,-2.3885,8.8878,-0.0194,-0.148,0.0877
13.72,0.6283,-2.4356,9.0462,-0.1555,-0.3822,0.1265
13.74,0.4182,-2.6746,9.037,-0.1978,-0.3867,0.1497
13.76,0.3235,-2.4354,9.0908,-0.2388,-0.1124,0.1319
13.78,0.437,-2.7174,10.1337,-0.1217,0.3077,0.074
13.8,0.3818,-2.5715,10.4735,-0.068,0.5555,0.0133
13.82,1.5465,-2.7185,10.9304,0.1242,0.4813,-0.0588
13.84,1.5002,-2.401,9.6277,0.1976,0.0925,-0.1246
13.86,1.4323,-2.2318,9.1837,0.253,-0.303,-0.1145
13.88,1.252,-2.2804,9.1046,0.1971,-0.4379,-0.1189
13.9,1.1941,-2.2939,8.9142,0.0752,-0.3008,-0.0963
13.92,1.0447,-2.3653,9.1153,0.0275,-0.0366,-0.064
13.94,0.8781,-2.2541,9.0748,-0.0405,0.1259,-0.0185
13.96,0.8534,-2.3196,9.0341,-0.0507,0.1802,0.0041
13.98,1.226,-2.3032,9.2831,-0.0517,0.102,0.011
14.0,1.0509,-2.1156,9.2178,-0.0574,0.001,0.0273
14.02,0.8856,-2.2078,9.5303,-0.021,-0.0565,-0.0106
14.04,1.1031,-2.2687,9.4043,0.014,-0.013,0.0177
14.06,1.0544,-2.156,9.4882,0.0254,-0.0009,0.0125
14.08,1.1523,-2.3038,9.464,-0.0039,-0.0105,-0.0094
14.1,0.998,-2.3656,9.3843,0.004,-0.0035,0.0179
14.12,1.0726,-2.2052,9.4083,-0.0011,-0.0366,0.0143
14.14,1.161,-2.3468,9.2982,0.0188,-0.0025,0.012
14.16,1.1025,-2.1587,9.4108,0.0241,0.0423,0.042
14.18,1.1182,-2.3532,9.3761,0.0196,0.1354,0.021
14.2,1.1817,-2.167,9.2261,0.0676,0.1542,0.0004
14.22,0.7116,-2.4057,8.8006,0.0412,0.0768,-0.0307
14.24,1.2856,-2.2781,9.0169,-0.0459,-0.1505,-0.097
14.26,0.9762,-2.1392,8.8474,-0.1395,-0.4186,-0.1268
14.28,0.3618,-2.2448,8.7859,-0.2194,-0.4337,-0.1506
14.3,0.6223,-1.9361,9.5004,-0.2109,-0.1291,-0.1378
14.32,0.5989,-1.8336,10.7398,-0.1718,0.3511,-0.086
14.34,0.8412,-1.851,11.0443,-0.0227,0.6059,-0.0146
14.36,1.1976,-2.0094,10.507,0.124,0.5076,0.0574
14.38,1.7271,-2.0866,10.0149,0.1933,0.1151,0.1252
14.4,1.3392,-2.0923,8.9295,0.2579,-0.3005,0.1412
14.42,1.2439,-2.1032,8.8469,0.184,-0.4554,0.1417
14.44,1.2332,-2.3363,8.9434,0.0763,-0.2875,0.0811
14.46,1.1257,-2.6849,8.9196,0.0315,-0.0021,0.0567
14.48,0.9705,-2.4143,8.9367,-0.0499,0.1302,-0.0037
14.5,0.7559,-2.389,9.1335,-0.0611,0.1553,-0.0182
14.52,0.8291,-2.4611,9.1882,-0.0496,0.0926,-0.0012
14.54,0.7778,-2.3338,9.3959,-0.0258,-0.0135,-0.0276
14.56,0.9766,-2.3262,9.4919,-0.0263,-0.036,-0.0018
14.58,1.0681,-2.1617,9.6632,0.0005,-0.0261,-0.0305
14.6,0.8112,-2.2915,9.3983,-0.0029,-0.0294,-0.0033
14.62,0.965,-2.3619,9.3264,0.0177,0.0095,-0.0033
14.64,1.0084,-2.4376,9.3543,-0.0025,0.0142,0.0042
14.66,0.9134,-2.1774,9.3578,0.0003,-0.0074,0.0006
14.68,0.8846,-2.5492,9.4182,0.0067,-0.0099,0.0143
14.7,0.8281,-2.5243,9.2925,0.0003,-0.02,-0.017
14.72,0.9465,-2.4551,9.3303,0.0166,-0.0413,-0.0316
14.74,0.8265,-2.682,9.3731,0.0365,0.0066,-0.0336
14.76,0.8082,-2.6248,9.2245,0.0605,0.0946,-0.0339
14.78,0.9032,-2.2638,9.121,0.0651,0.1675,0.0012
14.8,0.9907,-2.3911,8.8245,0.0373,0.1538,0.0101
14.82,0.9897,-2.6245,8.9064,0.0015,0.0054,0.0493
14.84,0.9595,-2.4987,8.9669,-0.1242,-0.2596,0.0912
14.86,0.7335,-2.4217,8.9319,-0.155,-0.4599,0.1287
14.88,0.4012,-2.5303,9.0559,-0.2516,-0.3548,0.143
14.9,0.2406,-2.9193,9.4941,-0.2114,0.0026,0.1246
14.92,0.3669,-2.8842,10.0868,-0.1088,0.4364,0.0782
14.94,0.9808,-2.9176,11.0022,0.0174,0.6186,0.0027
14.96,1.4962,-2.6669,10.6215,0.1467,0.3818,-0.0746
14.98,1.5239,-2.6588,9.3375,0.239,-0.0649,-0.1246
15.0,1.3716,-2.5251,9.1558,0.2291,-0.3924,-0.1506
15.02,1.0007,-2.4894,8.7756,0.1699,-0.4498,-0.1268
15.04,1.351,-2.4,9.016,0.052,-0.2089,-0.0972
15.06,0.4976,-2.335,8.8601,0.0078,0.0286,-0.0498
15.08,1.0105,-2.4635,9.0169,-0.0486,0.1804,-0.0186
15.1,0.5208,-2.3227,9.1545,-0.0339,0.1519,0.0247
15.12,0.8117,-2.5585,9.1947,-0.059,0.0782,0.0228
15.14,0.9296,-2.4672,9.456,-0.0083,-0.0398,0.0033
15.16,0.9293,-2.6993,9.447,0.0229,-0.0172,0.0028
15.18,0.8053,-2.5568,9.4359,0.0094,-0.0063,-0.0005
15.2,1.0649,-2.6259,9.4177,0.0093,-0.0151,-0.0064
15.22,0.9495,-2.4685,9.4825,-0.0186,0.0071,0.0039
15.24,1.1281,-2.4866,9.4003,0.0039,-0.0033,0.0046
15.26,0.7544,-2.317,9.4197,-0.0015,0.0151,0.0074
15.28,0.8662,-2.3432,9.3363,0.0058,-0.0292,0.0196
15.3,1.0078,-2.3894,9.4175,0.0044,-0.0305,0.0114
15.32,1.1616,-2.4537,9.3938,0.0407,-0.0265,0.025
15.34,1.0089,-2.3799,9.3096,0.0485,0.0486,0.0292
15.36,1.03,-2.297,9.0567,0.1122,0.129,0.026
15.38,1.0454,-2.2014,9.1046,0.0504,0.1966,-0.0328
15.4,1.0073,-2.6117,8.9209,0.0497,0.0491,-0.0364
15.42,1.0262,-2.4313,9.0343,-0.0687,-0.1885,-0.0849
15.44,0.8034,-2.3848,8.9144,-0.1162,-0.3807,-0.1254
15.46,0.981,-2.1747,9.0622,-0.2316,-0.3992,-0.1299
15.48,0.4957,-2.0148,9.2153,-0.2186,-0.0956,-0.1268
15.5,0.4329,-2.1739,10.5019,-0.1521,0.3385,-0.0772
15.52,1.0708,-1.9702,11.2939,-0.068,0.6358,-0.0224
15.54,1.4248,-2.0546,10.3621,0.1064,0.5073,0.0636
15.56,1.7903,-2.2679,9.7199,0.2342,0.0728,0.1194
15.58,1.3437,-2.1408,9.1988,0.2668,-0.3417,0.1381
15.6,1.4227,-2.1943,8.9412,0.1833,-0.4324,0.1414
15.62,0.7329,-2.1741,8.7108,0.0686,-0.2792,0.09
15.64,1.0742,-2.3828,9.0798,-0.0126,-0.0392,0.0735
15.66,1.0756,-2.3583,8.8412,-0.0547,0.1505,0.0109
15.68,0.5923,-2.2347,9.1703,-0.0752,0.1622,-0.0204
15.7,0.9761,-2.2064,9.1821,-0.0754,0.0931,-0.0222
15.72,0.9988,-2.3322,9.4258,-0.0205,-0.0138,-0.0073
15.74,1.0983,-2.2091,9.4027,-0.0105,-0.0482,-0.0149
15.76,0.8744,-2.099,9.2631,0.0232,-0.0398,-0.0003
15.78,1.0208,-2.3766,9.3264,0.0091,-0.0171,-0.0129
15.8,0.9423,-2.0935,9.1968,-0.0051,0.0232,0.006
15.82,0.8527,-2.4345,9.4675,-0.0302,-0.0087,-0.0279
15.84,0.9291,-2.0634,9.405,0.0108,-0.0087,-0.016
15.86,1.0308,-2.1144,9.3484,-0.0001,-0.0223,-0.0119
15.88,1.1892,-2.3246,9.085,0.0524,0.0131,-0.0219
15.9,0.9372,-2.1422,9.3462,0.0533,0.0995,0.0038
15.92,1.0994,-2.1725,9.2323,0.0524,0.1755,0.0181
15.94,1.0548,-2.1792,8.9347,0.0498,0.1479,0.0161
15.96,0.9099,-2.0522,8.923,-0.0092,-0.0319,0.0554
15.98,0.87,-2.4841,8.9207,-0.103,-0.2915,0.0772
16.0,0.9034,-2.1122,8.8903,-0.1889,-0.4551,0.1361
16.02,0.4841,-2.4286,9.0617,-0.2408,-0.2712,0.1525
16.04,0.3364,-2.5017,9.6594,-0.2177,0.0905,0.1054
16.06,0.7293,-2.5685,10.4664,-0.1088,0.4979,0.052
16.08,1.3109,-2.6653,11.3559,0.0195,0.5843,-0.0246
16.1,1.0766,-2.8399,9.9804,0.175,0.3337,-0.0981
16.12,1.2702,-2.7057,9.2703,0.2303,-0.1234,-0.1168
16.14,1.2629,-2.5284,8.7745,0.2347,-0.4079,-0.1266
16.16,0.8724,-2.3629,8.8182,0.1275,-0.3945,-0.117
16.18,0.8965,-2.6181,8.8512,0.0497,-0.1567,-0.0632
16.2,0.5326,-2.4159,8.9347,-0.0281,0.0566,-0.0392
16.22,0.7584,-2.2522,8.9786,-0.0598,0.1885,0.0054
16.24,0.7794,-2.4482,9.0966,-0.062,0.1036,0.0318
16.26,0.7773,-2.4983,9.2,-0.0458,0.0687,0.0074
16.28,0.7512,-2.4459,9.6411,-0.008,-0.0246,0.0339
16.3,0.7992,-2.5454,9.4346,-0.0142,-0.0134,0.0005
16.32,0.942,-2.4856,9.428,-0.0036,-0.0242,0.0161
16.34,0.9991,-2.6543,9.2866,0.0396,0.0101,0.004
16.36,0.8879,-2.3235,9.3313,-0.0201,-0.0407,0.0223
16.38,0.5518,-2.568,9.3515,0.0177,-0.0181,0.0128
16.4,0.6536,-2.3754,9.4174,0.0182,-0.0206,0.0045
16.42,1.037,-2.4229,9.2544,0.0074,-0.0135,0.0272
16.44,1.0388,-2.5483,9.249,0.0735,0.0532,0.0134
16.46,1.0376,-2.2221,9.2393,0.0465,0.162,0.0115
16.48,0.5983,-2.8959,9.0226,0.1056,0.1748,0.0141
16.5,0.853,-2.6358,9.0411,0.0053,0.0561,-0.0423
16.52,0.7888,-2.4384,8.8993,-0.0697,-0.2005,-0.0895
16.54,0.833,-2.6299,8.7291,-0.1513,-0.4425,-0.1266
16.56,0.6529,-2.5005,8.7888,-0.2632,-0.4446,-0.1454
16.58,0.4446,-2.2954,9.3886,-0.2589,-0.0924,-0.1382
16.6,0.4572,-2.2516,10.4961,-0.1687,0.407,-0.1022
16.62,0.5447,-2.1642,10.7485,-0.0413,0.656,-0.0106
16.64,1.3525,-2.2821,11.1506,0.1481,0.5055,0.0775
16.66,1.2396,-2.3786,9.6914,0.2185,0.0725,0.132
16.68,1.3404,-2.5277,8.8777,0.2366,-0.3308,0.1508
16.7,1.2378,-2.3609,8.6281,0.1973,-0.4625,0.1383
16.72,0.8969,-2.4272,8.718,0.0613,-0.272,0.1041
16.74,0.8086,-2.5206,8.9496,0.0018,-0.0343,0.0453
16.76,0.9541,-2.4498,9.0672,-0.0625,0.1833,0.0056
16.78,0.8259,-2.6297,9.0973,-0.0813,0.1465,-0.0092
16.8,0.9551,-2.4563,9.1954,-0.0678,0.0953,-0.024
16.82,0.6941,-2.1063,9.3836,-0.0389,0.01,-0.0321
16.84,0.9014,-2.2135,9.3964,-0.023,-0.0245,-0.0074
16.86,1.0407,-2.2419,9.1972,0.0014,-0.0238,-0.0086
16.88,0.9143,-2.289,9.362,-0.0155,0.0142,-0.0084
16.9,1.2054,-2.2489,9.0605,0.0185,-0.0161,-0.0001
16.92,1.0453,-2.2352,9.2908,-0.0153,0.0468,0.0051
16.94,1.0443,-2.1603,9.316,0.0135,0.0006,-0.0077
16.96,1.0997,-2.0953,9.3404,0.0012,-0.0201,0.014
16.98,1.0398,-2.2396,9.4473,-0.0168,-0.0074,0.0084
17.0,0.9968,-2.0533,9.4038,-0.0031,-0.0432,0.0018
17.02,1.1936,-2.4568,9.5292,0.0318,-0.0145,-0.0122
17.04,1.3246,-2.3071,9.337,0.0563,0.0723,-0.0085
17.06,1.0709,-2.2389,9.2836,0.0439,0.1414,-0.0121
17.08,1.1735,-1.865,9.005,0.0642,0.1542,-0.0033
17.1,1.0163,-2.1355,9.0262,0.0179,0.0072,0.053
17.12,1.0336,-2.1136,8.8887,-0.0666,-0.2499,0.0987
17.14,0.9108,-2.2969,8.9496,-0.1581,-0.451,0.144
17.16,0.7933,-2.1079,8.9373,-0.2263,-0.3814,0.1504
17.18,0.5787,-2.1949,9.3861,-0.2422,-0.0359,0.1384
17.2,0.7852,-2.391,10.5214,-0.1567,0.4109,0.0853
17.22,1.0472,-2.2628,11.0863,-0.0033,0.637,-0.0053
17.24,1.2381,-2.4594,10.0231,0.1396,0.4421,-0.0746
17.26,1.5187,-2.2726,9.6377,0.2116,-0.0058,-0.1022
17.28,1.3458,-2.1365,9.0302,0.2366,-0.3506,-0.1444
17.3,1.1728,-2.0557,8.9267,0.1684,-0.4347,-0.1568
17.32,0.8362,-2.155,9.1362,0.0644,-0.2223,-0.0907
17.34,0.93,-1.9073,8.9297,0.0132,0.0143,-0.0529
17.36,0.8531,-2.3829,9.09,-0.0533,0.1631,-0.0253
17.38,0.8205,-1.9357,9.1745,-0.0788,0.1473,0.0037
17.4,0.9709,-2.0425,9.1946,-0.0392,0.0631,-0.0005
17.42,1.1137,-2.2355,9.3808,-0.0549,-0.0084,0.0407
17.44,1.1229,-2.318,9.5014,-0.0056,-0.0162,0.0279
17.46,0.9745,-2.3497,9.5297,0.0065,-0.0273,0.0129
17.48,0.8412,-2.2281,9.448,0.0206,-0.0013,-0.0187
17.5,0.8892,-2.4754,9.4219,-0.0011,0.0244,-0.0047
17.52,1.1176,-2.528,9.4012,-0.0337,-0.0233,-0.0165
17.54,0.8848,-2.4384,9.365,-0.0246,-0.0224,0.0196
17.56,0.7411,-2.3045,9.4712,-0.0021,-0.0023,0.0209
17.58,1.1498,-2.6461,9.4233,-0.008,-0.061,0.0063
17.6,1.3907,-2.4893,9.5462,-0.0055,-0.026,0.0196
17.62,0.9267,-2.4071,9.3896,0.0696,0.0159,0.0304
17.64,0.9122,-2.6181,9.1986,0.0451,0.1174,0.0029
17.66,1.0927,-2.48,9.162,0.0451,0.1818,0.005
17.68,1.1121,-2.7558,9.1858,0.0472,0.1107,-0.0337
17.7,1.0168,-2.7069,8.9386,-0.0199,-0.1403,-0.0856
17.72,0.9007,-2.6811,8.8193,-0.1315,-0.4173,-0.106
17.74,0.6334,-2.5507,8.8144,-0.2572,-0.4827,-0.1775
17.76,0.3578,-2.2749,9.1473,-0.291,-0.218,-0.1493
17.78,0.2026,-2.3288,10.2414,-0.222,0.2649,-0.1061
17.8,0.7919,-2.1177,10.9098,-0.0862,0.6786,-0.0234
17.82,1.1413,-2.2268,10.9506,0.0883,0.6021,0.0412
17.84,1.6722,-2.1553,10.133,0.2404,0.1877,0.1356
17.86,1.3704,-2.2441,9.043,0.2424,-0.2795,0.1637
17.88,1.1857,-2.5678,8.6076,0.2151,-0.5059,0.1632
17.9,1.0234,-2.6878,8.7872,0.1123,-0.3792,0.1314
17.92,0.7351,-2.624,9.0309,0.0159,-0.0843,0.0811
17.94,1.0889,-2.6544,9.1016,-0.03,0.1355,0.0299
17.96,0.5557,-2.8053,9.1928,-0.1081,0.1752,-0.0046
17.98,0.8509,-2.4952,9.252,-0.0998,0.1168,-0.0405
18.0,0.8339,-2.528,9.3169,-0.0275,0.0052,-0.0253
18.02,0.826,-2.4571,9.5855,-0.0118,-0.0155,-0.019
18.04,0.8458,-2.4898,9.4481,0.0055,-0.0506,0.0073
18.06,1.0505,-2.6692,9.3404,0.0202,-0.022,0.0025
18.08,0.9979,-2.3856,9.3991,0.0074,-0.0223,-0.0013
18.1,1.057,-2.6024,9.4827,0.0,0.0131,0.0028
18.12,1.0027,-2.4199,9.4206,-0.0102,-0.0131,-0.0181
18.14,0.8704,-2.4586,9.5493,-0.0105,-0.0297,-0.0224
18.16,1.1411,-2.5309,9.4278,0.0145,-0.027,-0.0312
18.18,1.1843,-2.4927,9.2302,0.0472,0.0454,-0.035
18.2,1.1305,-2.6189,9.2182,0.0458,0.1376,-0.0158
18.22,0.8186,-2.1128,9.07,0.0706,0.1796,-0.003
18.24,0.8466,-2.2593,8.9959,0.006,0.0696,0.0606
18.26,1.1097,-2.424,9.0214,-0.0477,-0.2113,0.0841
18.28,0.7514,-2.1693,8.9832,-0.1676,-0.4268,0.1352
18.3,0.5607,-2.1512,8.8459,-0.263,-0.4123,0.1658
18.32,0.5912,-2.4155,9.3434,-0.226,-0.1031,0.1333
18.34,0.5055,-2.5352,10.5535,-0.1896,0.375,0.078
18.36,0.8151,-2.4513,10.941,-0.0336,0.6457,0.0222
18.38,1.2635,-2.5152,10.4476,0.1268,0.4947,-0.0852
18.4,1.8261,-2.5045,9.8137,0.2274,0.0685,-0.1236
18.42,1.5282,-2.4706,8.9643,0.2388,-0.3257,-0.1595
18.44,1.3269,-2.2277,8.7983,0.2155,-0.4697,-0.1588
18.46,0.8656,-1.9079,9.0766,0.1131,-0.292,-0.1009
18.48,0.9798,-2.1391,9.0512,0.0007,-0.0311,-0.06
18.5,0.9247,-2.1203,9.1012,-0.0536,0.1417,-0.0037
18.52,0.993,-2.0981,9.1361,-0.0891,0.1752,0.011
18.54,1.2434,-2.216,9.2286,-0.0589,0.088,0.0481
18.56,1.054,-2.277,9.3611,-0.025,0.0019,0.029
18.58,0.7553,-2.372,9.5532,-0.0077,-0.0361,0.001
18.6,1.0339,-2.0182,9.3986,-0.0315,-0.0364,0.0155
18.62,1.0122,-2.1728,9.4298,0.0165,-0.0143,0.011
18.64,0.9939,-2.0796,9.4031,-0.0115,-0.0088,0.0049
18.66,1.1649,-2.3154,9.5047,0.0133,-0.0347,-0.009
18.68,0.905,-2.1353,9.4682,-0.0141,-0.0384,0.0173
18.7,0.9716,-2.1216,9.3667,0.0231,-0.0201,0.0116
18.72,1.2111,-1.9798,9.1397,0.037,0.05,0.0257
18.74,1.2687,-2.2637,9.1875,0.0492,0.1836,0.0037
18.76,0.9687,-2.4545,8.9326,0.0479,0.1968,-0.0006
18.78,1.1562,-2.1699,9.1078,0.0103,0.0348,-0.0332
18.8,1.169,-2.3143,8.8206,-0.0763,-0.2549,-0.099
18.82,0.895,-2.5105,8.6863,-0.1941,-0.5,-0.1412
18.84,0.6419,-2.1417,9.0197,-0.2393,-0.4125,-0.1402
18.86,0.3023,-2.0959,9.4601,-0.2479,-0.0323,-0.1473
18.88,0.5482,-1.913,10.2236,-0.1659,0.4377,-0.0946
18.9,0.9487,-1.9671,11.5638,-0.0118,0.6737,0.0007
18.92,1.5683,-2.0983,10.7079,0.1708,0.4631,0.0939
18.94,1.4981,-2.0635,9.4538,0.2402,-0.0164,0.1356
18.96,1.3476,-2.4346,8.8121,0.2635,-0.4214,0.1739
18.98,1.2603,-2.2857,8.9098,0.1794,-0.4497,0.1635
19.0,0.8279,-2.3794,9.0353,0.0885,-0.2414,0.1234
19.02,0.9875,-2.7044,9.0406,-0.0095,0.0368,0.0539
19.04,0.9779,-2.3156,8.8565,-0.073,0.1919,0.0241
19.06,1.0678,-2.3257,8.9878,-0.054,0.1618,-0.0012
19.08,1.0886,-2.5665,9.2071,-0.0518,0.0751,-0.0444
19.1,0.8355,-2.2261,9.2408,-0.0276,-0.0246,-0.0177
19.12,0.9804,-2.2455,9.4242,-0.0112,-0.0095,-0.035
19.14,1.0597,-2.1674,9.4622,0.0174,-0.0297,0.0133
19.16,1.0645,-2.3105,9.2799,-0.0159,-0.0019,0.01
19.18,0.8702,-2.425,9.3926,-0.0157,-0.0029,-0.0104
19.2,0.6466,-2.4616,9.2814,0.0224,0.007,0.0145
19.22,0.5413,-2.3824,9.2975,-0.0185,0.0017,0.0037
19.24,0.7627,-2.3964,9.2508,-0.0225,-0.0445,-0.0223
19.26,1.1314,-2.4783,9.2841,0.003,-0.0719,-0.0023
19.28,0.8687,-2.5472,9.6064,0.0202,-0.0631,-0.0334
19.3,0.9833,-2.6118,9.2382,0.0062,0.0172,-0.0051
19.32,0.888,-2.3169,9.3599,0.0712,0.0984,-0.0303
19.34,0.8873,-2.2063,9.1443,0.0602,0.1605,-0.0002
19.36,0.8876,-2.361,9.1726,0.0471,0.1389,0.0184
19.38,1.0708,-2.3164,8.8378,-0.0736,-0.1032,0.0607
19.4,0.9757,-2.4962,9.051,-0.1651,-0.3532,0.1139
19.42,0.7846,-2.3051,8.9078,-0.2115,-0.4854,0.1583
19.44,0.3909,-2.6041,9.0772,-0.2376,-0.2705,0.1363
19.46,0.5283,-2.7755,9.8892,-0.2352,0.2031,0.1206
19.48,0.6143,-2.9118,10.9802,-0.1212,0.5815,0.065
19.5,1.0916,-2.9425,10.5677,0.051,0.618,-0.0416
19.52,1.5872,-2.5618,10.1833,0.1707,0.2543,-0.1153
19.54,1.513,-2.4408,9.2629,0.2296,-0.1809,-0.1459
19.56,1.1217,-2.5499,8.9272,0.2368,-0.4466,-0.1463
19.58,0.8776,-2.4021,8.9725,0.1428,-0.4049,-0.1183
19.6,0.7028,-2.1411,8.9318,0.0395,-0.1271,-0.0789
19.62,1.0517,-2.4185,9.1317,-0.0641,0.0923,-0.0257
19.64,0.8486,-2.2782,9.3138,-0.0676,0.1963,0.0082
19.66,0.9987,-2.3621,9.1616,-0.0715,0.1305,0.0267
19.68,0.8509,-2.3078,9.3342,-0.0271,0.0488,0.0004
19.7,0.8547,-2.2524,9.2849,-0.0373,-0.0232,0.0199
19.72,1.0656,-2.2597,9.5153,0.0054,-0.0424,0.0312
19.74,0.621,-2.2832,9.4491,-0.022,-0.0196,0.0153
19.76,0.9422,-2.2379,9.2329,-0.0015,0.0125,0.002
19.78,0.9243,-2.3661,9.3256,0.01,0.012,0.0052
19.8,1.3053,-2.3673,9.3902,-0.0092,-0.0121,0.0071
19.82,0.9104,-2.3189,9.4152,0.0162,-0.0181,0.0083
19.84,1.0159,-2.0828,9.2683,-0.0191,-0.0372,0.0228
19.86,1.4091,-2.2192,9.5687,0.0179,-0.0688,0.0242
19.88,1.0,-2.3731,9.3758,0.0387,0.009,0.0357
19.9,1.0091,-2.3912,9.1861,0.0787,0.1269,0.0278
19.92,1.0175,-2.1723,9.0998,0.0599,0.2257,0.0104
19.94,1.0657,-2.2874,9.0426,0.0598,0.165,-0.0126
19.96,1.1342,-2.1498,8.715,-0.0255,-0.0527,-0.0685
19.98,0.8292,-2.1159,8.7131,-0.139,-0.3679,-0.154
20.0,0.9081,-2.2291,8.6671,-0.2273,-0.5662,-0.1756
20.02,0.6272,-2.096,8.9652,-0.2968,-0.4101,-0.1944
20.04,0.4884,-2.0043,10.1308,-0.266,0.1035,-0.1657
20.06,0.4467,-1.8228,10.8221,-0.1501,0.6475,-0.0803
20.08,1.1189,-1.6639,11.6158,0.0151,0.7824,0.0306
20.1,2.0491,-1.9181,10.7684,0.2097,0.4389,0.1263
20.12,1.5558,-2.0232,9.1993,0.2975,-0.1403,0.1751
20.14,1.4283,-2.2129,8.6477,0.278,-0.5502,0.2037
20.16,1.0714,-2.1228,8.8095,0.1609,-0.5282,0.1692
20.18,1.0494,-1.9677,8.6988,0.0942,-0.2289,0.1313
20.2,1.1075,-2.2103,8.9524,-0.0236,0.057,0.0702
20.22,1.265,-2.3421,9.0123,-0.0539,0.2291,-0.0017
20.24,1.0126,-2.309,9.329,-0.0881,0.1737,-0.0232
20.26,1.0711,-2.3681,9.3559,-0.0544,0.0354,-0.0144
20.28,0.7193,-2.0136,9.4093,-0.0339,-0.0141,-0.0285
20.3,0.8613,-2.1959,9.396,-0.0199,-0.0653,-0.0362
20.32,0.87,-2.1923,9.4407,0.0357,-0.0181,-0.0032
20.34,1.1606,-2.2467,9.3608,0.0001,-0.0203,0.0014
20.36,0.798,-2.3249,9.1882,-0.0198,-0.0146,0.0045
20.38,1.1762,-2.1847,9.3779,0.0268,0.0186,-0.0048
20.4,1.1114,-2.3205,9.3991,-0.0192,-0.0015,0.0095
20.42,0.9768,-2.2603,9.3105,-0.0123,0.0157,0.0215
20.44,1.1002,-2.0478,9.2817,0.0236,-0.0316,0.0124
20.46,0.7633,-2.3783,9.4233,-0.0256,-0.0401,-0.0137
20.48,0.8772,-2.3613,9.3653,0.0003,-0.0465,-0.0227
20.5,0.9937,-2.3334,9.4326,0.0533,0.0271,-0.0107
20.52,1.0693,-2.0853,9.3576,0.0658,0.1175,-0.0103
20.54,0.7934,-2.1541,8.9639,0.0869,0.1805,0.0126
20.56,1.0717,-2.3199,9.0199,0.0469,0.1137,0.0168
20.58,0.8818,-2.0726,9.0604,-0.0485,-0.1202,0.0789
20.6,0.9054,-2.2625,8.8106,-0.1257,-0.4048,0.144
20.62,0.901,-2.5654,8.8788,-0.2215,-0.511,0.1655
20.64,0.4988,-2.6145,9.0914,-0.2825,-0.2959,0.1583
20.66,0.1913,-2.646,10.2011,-0.2284,0.218,0.1393
20.68,0.7458,-2.5786,10.7958,-0.1083,0.6285,0.0588
20.7,0.9616,-2.7008,10.6257,0.0612,0.6666,-0.0383
20.72,1.5216,-2.8024,10.3411,0.2206,0.2961,-0.1101
20.74,1.7443,-2.4797,9.2192,0.2675,-0.221,-0.1625
20.76,0.9935,-2.525,8.7695,0.249,-0.4924,-0.1733
20.78,1.0811,-2.6735,8.8394,0.1471,-0.4233,-0.1314
20.8,0.7727,-2.4484,8.9539,0.0396,-0.1335,-0.0916
20.82,1.0736,-2.1823,9.078,-0.0437,0.1168,-0.034
20.84,0.7675,-2.3891,9.1071,-0.0741,0.2082,0.0011
20.86,0.8228,-2.3456,9.2146,-0.0801,0.1376,0.0002
20.88,0.894,-2.2254,9.1301,-0.0596,0.0241,0.0176
20.9,0.8296,-2.4237,9.3523,-0.0574,-0.0135,0.0113
20.92,0.8021,-2.2662,9.2943,-0.0287,-0.0362,0.0251
20.94,0.8131,-2.649,9.3927,-0.0017,-0.0244,0.0183
20.96,1.0103,-2.5739,9.4037,0.0047,-0.049,0.0105
20.98,1.1268,-2.5229,9.3286,-0.0194,-0.0192,0.008
21.0,1.0213,-2.629,9.3553,0.0156,-0.0275,0.0218
21.02,0.8823,-2.533,9.2221,0.0333,0.0169,0.0129
21.04,1.1102,-2.3538,9.1755,0.0815,0.1034,0.0364
21.06,0.8849,-2.6148,9.1945,0.0451,0.1576,-0.0068
21.08,0.9429,-2.6241,9.067,0.0065,0.1034,-0.0387
21.1,0.9935,-2.4568,9.0106,-0.0738,-0.1151,-0.0434
21.12,0.8063,-2.2951,8.8515,-0.1298,-0.3592,-0.1148
21.14,0.7097,-2.3457,8.9915,-0.199,-0.3832,-0.1268
21.16,0.3896,-2.2004,9.2094,-0.2351,-0.1805,-0.1295
21.18,0.6998,-2.1012,10.0965,-0.1851,0.2412,-0.0761
21.2,0.6914,-2.178,10.6782,-0.0759,0.5414,-0.0357
21.22,1.2915,-2.1994,11.0571,0.0666,0.4773,0.044
21.24,1.5614,-2.2304,10.0374,0.2188,0.1512,0.0999
21.26,1.4887,-2.2945,9.1259,0.2177,-0.2242,0.1223
21.28,1.404,-2.3994,8.7806,0.195,-0.4037,0.1348
21.3,1.2681,-2.363,8.7734,0.0784,-0.3106,0.1012
21.32,1.1011,-2.4459,8.9934,0.0195,-0.0754,0.0589
21.34,0.8846,-2.3811,9.2166,-0.0296,0.077,0.0163
21.36,1.0582,-2.0525,9.3828,-0.085,0.1607,0.0029
21.38,0.9171,-2.3492,9.3445,-0.0529,0.0817,-0.0335
21.4,1.0881,-2.3921,9.3972,-0.0578,0.0124,-0.0189
21.42,0.767,-2.077,9.3737,-0.0364,-0.0353,0.005
21.44,0.9692,-2.0914,9.4644,-0.0134,-0.033,-0.012
21.46,0.9521,-2.1743,9.362,0.0039,-0.0017,-0.018
21.48,0.8097,-2.1133,9.2971,-0.0032,-0.0191,-0.0152
21.5,0.9094,-2.2155,9.4303,-0.0435,-0.0201,-0.0009
21.52,1.0831,-2.2407,9.4512,0.004,-0.0473,-0.0087
21.54,0.8904,-2.2193,9.5887,0.0112,-0.0544,-0.0252
21.56,1.2554,-2.2243,9.4796,0.0171,0.0086,-0.0347
21.58,1.2851,-2.1654,9.2444,0.0652,0.0898,-0.033
21.6,1.205,-2.0903,9.1023,0.0502,0.1619,-0.03
21.62,1.0384,-2.1815,9.1408,0.0606,0.1921,0.0047
21.64,1.0027,-1.9216,9.0619,-0.0216,0.0111,0.0479
21.66,1.0808,-2.3345,8.8069,-0.1144,-0.2845,0.1243
21.68,0.6295,-2.2582,8.6666,-0.2095,-0.4775,0.1348
21.7,0.4143,-2.3026,8.9956,-0.2737,-0.407,0.1746
21.72,0.4416,-2.4849,9.773,-0.2666,0.0162,0.1296
21.74,0.7971,-2.2382,10.7522,-0.1619,0.4783,0.0701
21.76,1.1315,-2.5579,10.674,0.0028,0.654,-0.0004
21.78,1.7613,-2.5331,10.7743,0.1428,0.4298,-0.0848
21.8,1.8952,-2.4206,9.4142,0.2394,-0.0287,-0.1352
21.82,1.6277,-2.412,8.842,0.2517,-0.4193,-0.1638
21.84,1.1623,-2.4757,8.8841,0.1567,-0.477,-0.1405
21.86,1.1484,-2.0981,8.9039,0.0932,-0.2179,-0.105
21.88,1.2285,-1.9914,9.0893,-0.0145,0.0321,-0.0646
21.9,0.8692,-1.9196,9.1861,-0.0751,0.2015,-0.0118
21.92,1.1382,-2.4053,9.1167,-0.084,0.1632,0.0173
21.94,1.0025,-2.282,9.2183,-0.0507,0.0884,0.0138
21.96,1.0396,-2.1461,9.3739,-0.0472,0.016,0.007
21.98,0.9911,-2.2216,9.5143,-0.0123,-0.033,0.0159
22.0,0.8021,-2.2902,9.4784,-0.0221,-0.0527,0.0042
22.02,1.0945,-2.2736,9.4131,0.0239,0.0004,-0.0083
22.04,1.1548,-2.5515,9.6807,-0.0171,0.031,-0.0012
22.06,0.9392,-2.4965,9.3289,-0.0341,-0.0293,-0.0091
22.08,0.8992,-2.4027,9.1587,0.0072,-0.0176,0.0038
22.1,1.0794,-2.5537,9.281,0.0027,-0.024,0.0055
22.12,1.0459,-2.4612,9.4943,-0.0259,0.0039,-0.0021
22.14,0.9388,-2.4794,9.3811,-0.015,-0.0274,-0.0084
22.16,0.9083,-2.3682,9.4108,0.0042,-0.0371,0.0166
22.18,0.9795,-2.3174,9.4149,0.029,-0.0085,-0.0028
22.2,0.9857,-2.6087,9.1138,0.0207,0.0509,0.0247
22.22,1.1376,-2.4974,9.3477,0.0572,0.1526,0.0246
22.24,0.8867,-2.7377,9.0461,0.0285,0.1817,-0.019
22.26,1.0649,-2.5096,9.1119,0.0083,0.0511,-0.0521
22.28,0.7706,-2.5157,8.6832,-0.055,-0.1917,-0.109
22.3,0.6868,-2.5311,8.7717,-0.1956,-0.4802,-0.1527
22.32,0.4971,-2.3408,8.985,-0.2661,-0.4519,-0.1664
22.34,0.32,-2.3646,9.4211,-0.2729,-0.0929,-0.1646
22.36,0.3929,-2.1563,10.8252,-0.1739,0.3871,-0.0856
22.38,0.7763,-2.2558,11.1465,-0.0407,0.6443,-0.0233
22.4,1.3278,-2.2919,10.6561,0.1405,0.4903,0.091
22.42,1.6924,-2.237,10.1312,0.2325,0.0779,0.1255
22.44,1.3292,-2.2509,8.7663,0.2319,-0.3555,0.1546
22.46,1.1034,-2.4562,8.6973,0.1854,-0.4685,0.1336
22.48,0.9012,-2.9206,9.0941,0.0916,-0.3018,0.1266
22.5,0.7692,-2.7591,9.0142,-0.007,-0.0137,0.0743
22.52,0.7778,-2.6765,9.065,-0.0343,0.1883,-0.0014
22.54,0.8289,-2.5281,9.2593,-0.0979,0.1715,0.0183
22.56,0.9915,-2.5072,9.2417,-0.0397,0.0976,-0.0253
22.58,0.7465,-2.2702,9.4224,-0.0456,0.0104,-0.02
22.6,1.0179,-2.455,9.651,-0.0014,-0.0221,0.0067
22.62,1.1132,-2.5064,9.5005,-0.0103,-0.0266,-0.0108
22.64,1.0771,-2.5172,9.3791,0.0109,-0.0314,-0.0048
22.66,0.9967,-2.3332,9.4711,0.0109,-0.0113,-0.0108
22.68,0.8273,-2.4259,9.6611,-0.013,-0.0341,-0.0197
22.7,0.9804,-2.1856,9.4362,0.0143,-0.02,-0.0364
22.72,1.4249,-2.3413,9.5043,0.0264,0.0396,-0.0271
22.74,1.338,-2.3468,9.2725,0.0567,0.1428,-0.002
22.76,1.1064,-2.2903,9.1896,0.0838,0.1555,0.0208
22.78,0.9476,-2.163,8.9008,0.0366,0.0638,0.0572
22.8,0.9231,-2.2444,8.8177,-0.0561,-0.1986,0.0774
22.82,0.9454,-2.3052,8.7388,-0.1625,-0.4344,0.1252
22.84,0.8985,-2.4915,8.902,-0.2388,-0.4064,0.1526
22.86,0.3941,-2.1773,9.3185,-0.2617,-0.0874,0.126
22.88,0.5746,-2.5415,10.0105,-0.1411,0.3646,0.0909
22.9,1.0211,-2.4284,10.66,-0.0068,0.6236,0.0256
22.92,1.9883,-2.559,10.9968,0.1201,0.4806,-0.0596
22.94,1.4604,-2.3167,9.5234,0.2285,0.0565,-0.1316
22.96,1.5214,-2.2314,9.0205,0.2026,-0.3275,-0.1485
22.98,1.4414,-2.1067,9.0353,0.181,-0.4492,-0.1478
23.0,1.1313,-2.1456,9.0426,0.0964,-0.3041,-0.115
23.02,1.4074,-2.0005,9.0154,0.0047,-0.0269,-0.0442
23.04,1.133,-1.9799,8.8584,-0.0597,0.1688,0.0091
23.06,1.1165,-2.1335,9.2563,-0.1016,0.1709,0.0118
23.08,1.0359,-1.8661,9.3511,-0.0816,0.099,0.0045
23.1,0.8688,-2.118,9.5769,-0.0445,-0.0158,0.0193
23.12,1.2275,-2.1856,9.4176,-0.0194,-0.0199,0.0278
23.14,0.8975,-2.2777,9.4007,-0.0247,-0.0095,0.0058
23.16,0.7814,-2.2114,9.4816,0.009,-0.0179,0.0155
23.18,0.9987,-1.827,9.4684,-0.049,-0.0202,-0.0088
23.2,1.1264,-2.1263,9.4085,0.0034,-0.0174,0.0155
23.22,1.0062,-2.2492,9.2851,0.0077,-0.0402,0.009
23.24,1.1116,-2.2381,9.3459,0.0066,-0.0329,0.0465
23.26,0.9206,-2.1442,9.3087,0.034,0.0647,0.0192
23.28,0.9899,-2.0624,9.0098,0.0416,0.1293,0.0163
23.3,1.0832,-2.408,9.1469,0.0461,0.1794,-0.0016
23.32,1.0596,-2.347,9.1457,0.0332,0.0919,-0.0385
23.34,1.1376,-2.3972,8.6908,-0.0788,-0.2066,-0.0826
23.36,1.0917,-2.3079,8.8379,-0.1747,-0.4322,-0.1375
23.38,0.7175,-2.3008,8.9398,-0.2585,-0.4569,-0.1622
23.4,0.694,-2.3283,9.3854,-0.2761,-0.1269,-0.1552
23.42,0.4753,-1.9509,10.6113,-0.2137,0.3324,-0.1065
23.44,0.9306,-1.9185,11.1416,-0.0159,0.627,-0.0359
23.46,1.2886,-2.0234,10.4662,0.116,0.5327,0.0791
23.48,1.8298,-2.1648,10.0672,0.2009,0.121,0.1463
23.5,1.5921,-2.2006,8.9512,0.2431,-0.3199,0.171
23.52,1.2184,-2.3439,8.9391,0.1964,-0.4854,0.1453
23.54,0.8063,-2.3474,8.6885,0.0969,-0.329,0.1147
23.56,0.8079,-2.5157,8.9178,0.011,-0.0472,0.0504
23.58,0.9096,-2.5663,9.0126,-0.0425,0.1574,0.0183
23.6,0.9017,-2.4047,9.2752,-0.0719,0.1869,-0.0098
23.62,0.5549,-2.6676,9.0654,-0.0826,0.1011,-0.0228
23.64,1.0267,-2.5866,9.3386,-0.0529,0.0161,-0.0152
23.66,1.013,-2.514,9.427,-0.0393,-0.0218,-0.0273
23.68,0.975,-2.648,9.6139,-0.0184,-0.0272,-0.0024
23.7,0.8373,-2.4929,9.4121,0.0057,-0.0251,0.0054
23.72,1.0667,-2.343,9.4453,-0.0068,-0.0096,0.021
23.74,1.0276,-2.4941,9.2771,-0.0262,0.0219,0.0197
23.76,0.5533,-2.5853,9.4204,-0.0216,-0.0275,-0.0036
23.78,0.88,-2.7071,9.5264,0.001,-0.0412,-0.0134
23.8,0.9094,-2.7226,9.3765,0.028,-0.0027,-0.0113
23.82,0.9568,-2.3954,9.124,0.023,0.0558,-0.013
23.84,1.0187,-2.4467,9.172,0.0521,0.1282,0.009
23.86,0.9993,-2.4477,9.2091,0.0392,0.1508,0.0188
23.88,0.933,-2.3723,8.9298,-0.005,0.0508,0.0311
23.9,0.827,-2.2283,8.8295,-0.0567,-0.1979,0.0881
23.92,0.9533,-2.4703,8.7527,-0.1639,-0.4276,0.1128
23.94,0.5469,-2.5999,8.9723,-0.2505,-0.4012,0.1401
23.96,0.4165,-2.3804,9.3859,-0.2313,-0.0556,0.1452
23.98,0.6857,-2.6097,10.5952,-0.1339,0.3782,0.0745
24.0,1.0427,-2.5488,10.9427,-0.0216,0.5992,0.0111
24.02,1.1009,-2.43,10.0955,0.1141,0.4251,-0.0587
24.04,1.7036,-2.3658,10.015,0.2012,0.0251,-0.1236
24.06,1.2839,-2.4799,8.9446,0.2234,-0.3321,-0.1453
24.08,1.1297,-2.3426,8.9743,0.1433,-0.4376,-0.1233
24.1,1.3315,-2.3678,8.7735,0.0722,-0.2645,-0.0862
24.12,1.0314,-2.1488,9.0517,-0.0082,0.0159,-0.0577
24.14,1.1849,-2.0697,9.0786,-0.0339,0.1484,-0.0184
24.16,0.7194,-2.1784,9.1951,-0.0825,0.1617,0.0023
24.18,0.9902,-2.2341,9.1815,-0.0487,0.0574,0.0455
24.2,0.8981,-2.1809,9.4097,-0.0645,0.0137,0.0152
24.22,1.0086,-2.3773,9.41,-0.0356,-0.0314,0.0309
24.24,1.0238,-2.1809,9.6357,-0.0111,-0.036,0.005
24.26,0.8325,-2.3807,9.436,-0.0035,0.002,-0.0095
24.28,1.0249,-2.3937,9.3515,-0.0288,0.0288,0.0155
24.3,1.0458,-2.2164,9.2552,-0.0003,-0.0081,0.0205
24.32,1.1617,-2.1834,9.3042,0.0135,-0.0171,0.0131
24.34,0.9649,-2.0224,9.445,-0.019,-0.0416,0.0015
24.36,1.1752,-2.2304,9.4083,0.0243,-0.0254,0.0052
24.38,1.1376,-2.0653,9.3597,0.0418,0.0628,0.0344
24.4,1.3079,-2.2063,9.3045,0.0546,0.1255,0.0071
24.42,1.3518,-2.2905,8.9269,0.0404,0.1814,-0.0034
24.44,1.1852,-2.4694,9.1,0.0165,0.0528,-0.061
24.46,1.0193,-2.1921,8.9178,-0.0812,-0.1832,-0.0792
24.48,1.0227,-2.3266,9.0501,-0.156,-0.4395,-0.1262
24.5,0.7832,-2.1864,8.8806,-0.2709,-0.4216,-0.1506
24.52,0.6478,-2.0067,9.3764,-0.2779,-0.0873,-0.1413
24.54,0.6197,-1.9078,10.6883,-0.1778,0.3524,-0.0881
24.56,1.0126,-1.8384,11.2787,-0.0324,0.6586,-0.0234
24.58,1.5799,-1.9116,10.5044,0.0871,0.4936,0.0669
24.6,1.6784,-2.1696,9.736,0.2123,0.0883,0.1402
24.62,1.6078,-1.776,9.1757,0.2443,-0.3316,0.1623
24.64,1.5067,-2.035,8.6768,0.1799,-0.4656,0.1518
24.66,1.116,-2.3042,8.9184,0.107,-0.3123,0.0968
24.68,1.3033,-2.2636,8.8339,0.0086,-0.0209,0.0709
24.7,0.8406,-2.3854,9.1169,-0.0689,0.1544,0.0276
24.72,0.8831,-2.2953,9.1292,-0.072,0.1772,-0.0076
24.74,1.1489,-2.3619,9.6317,-0.0842,0.1052,0.0004
24.76,1.0856,-2.2015,9.3811,-0.0466,0.0259,-0.0345
24.78,0.8625,-1.9929,9.2477,-0.0223,-0.0485,-0.0308
24.8,1.2011,-2.2794,9.6794,-0.0434,-0.0253,0.0021
24.82,0.8859,-2.2671,9.3504,-0.0135,-0.0091,0.0053
24.84,0.9629,-2.4997,9.2659,0.0109,-0.0038,0.0056
24.86,0.8771,-2.1967,9.5598,-0.0124,0.0073,-0.004
24.88,0.9979,-2.3199,9.3555,-0.0262,-0.0064,0.0038
24.9,0.9093,-2.2307,9.4039,-0.0182,-0.0175,0.0049
24.92,0.936,-2.0819,9.3919,-0.0071,-0.043,-0.0025
24.94,1.0483,-2.3454,9.3687,0.0078,0.0335,-0.0361
24.96,1.0045,-2.2191,9.4105,0.0292,0.1321,-0.024
24.98,0.8211,-2.437,9.1206,0.0517,0.1894,0.0056
25.0,0.9612,-2.4573,9.1546,0.0445,0.1434,0.0204
25.02,0.932,-2.2251,8.8629,-0.0458,-0.0435,0.0765
25.04,0.8889,-2.3666,8.7672,-0.1099,-0.3456,0.13
25.06,0.8623,-2.4267,8.9633,-0.2042,-0.5376,0.1677
25.08,0.6344,-2.6097,9.1946,-0.2931,-0.2956,0.1689
25.1,0.1762,-2.585,9.777,-0.2679,0.1417,0.1435
25.12,0.8389,-2.8515,11.1557,-0.141,0.5754,0.0727
25.14,1.0252,-2.7287,10.8444,0.0322,0.6741,-0.0146
25.16,1.4957,-2.9085,10.1145,0.1943,0.3252,-0.1036
25.18,1.6704,-2.9817,9.1134,0.2604,-0.1772,-0.1502
25.2,1.3852,-2.4366,8.9886,0.2487,-0.4712,-0.1543
25.22,1.1605,-2.6442,8.7213,0.1496,-0.4701,-0.1466
25.24,0.9405,-2.393,8.7688,0.0599,-0.1814,-0.0854
25.26,0.9986,-2.6175,9.0852,-0.0595,0.113,-0.0298
25.28,0.7917,-2.3104,9.0011,-0.0564,0.2108,0.0039
25.3,0.9452,-2.453,9.1119,-0.0857,0.1322,0.0119
25.32,0.9834,-2.5829,9.1084,-0.0427,0.0315,0.0255
25.34,0.92,-2.2627,9.3963,-0.0329,-0.0091,0.0081
25.36,0.9406,-2.6216,9.62,-0.034,-0.0477,0.0229
25.38,0.8397,-2.3342,9.3194,0.0107,-0.0189,0.0109
25.4,0.942,-2.4399,9.3215,-0.018,0.0092,-0.0002
25.42,0.8569,-2.6985,9.3583,-0.0064,0.0229,0.0154
25.44,1.2889,-2.4392,9.3991,-0.012,-0.0023,0.0077
25.46,0.8786,-2.3855,9.4223,-0.0038,-0.0304,0.0256
25.48,1.2499,-2.4129,9.6052,0.0055,-0.025,-0.0001
25.5,1.1168,-2.3888,9.4565,0.0169,-0.0151,0.0264
25.52,0.9221,-2.3147,9.2831,0.0224,0.0745,0.0271
25.54,1.2533,-2.5417,9.2993,0.0246,0.1642,-0.0018
25.56,1.0781,-2.6815,9.0141,0.0478,0.1715,-0.0089
25.58,0.999,-2.4028,8.9148,0.0174,0.0412,-0.0314
25.6,0.7962,-2.3023,8.8401,-0.076,-0.2054,-0.0604
25.62,1.231,-2.454,8.8488,-0.1579,-0.4016,-0.1249
25.64,0.9773,-2.3816,8.7537,-0.2353,-0.3742,-0.1519
25.66,0.7232,-1.9716,9.2994,-0.256,-0.0754,-0.1197
25.68,0.9468,-2.2979,10.5957,-0.158,0.3613,-0.0747
25.7,1.0068,-1.8875,10.8135,-0.0412,0.5874,-0.0106
25.72,1.5492,-1.9717,10.341,0.1036,0.4599,0.0612
25.74,1.6129,-2.1461,9.6965,0.1903,0.0847,0.1132
25.76,1.2709,-2.0451,8.9476,0.2053,-0.3042,0.1113
25.78,1.3567,-2.5586,8.7463,0.1823,-0.4265,0.1146
25.8,1.0934,-2.5211,8.8686,0.0684,-0.2804,0.0988
25.82,1.2075,-2.1026,9.095,0.023,-0.0008,0.0511
25.84,1.1306,-2.3937,9.179,-0.0502,0.1632,0.0124
25.86,0.8793,-2.4591,8.9862,-0.0825,0.1506,-0.0194
25.88,0.9315,-2.1856,9.2996,-0.049,0.0698,-0.0112
25.9,1.2932,-1.9619,9.2576,-0.0653,-0.0017,-0.0115
25.92,1.1456,-2.0957,9.3893,-0.0107,-0.0253,-0.0028
25.94,1.3605,-2.0378,9.6247,0.0099,-0.0183,0.0091
25.96,1.0736,-1.9176,9.2197,-0.0115,-0.0193,-0.0022
25.98,1.3189,-2.2148,9.3482,-0.006,-0.018,-0.0121
26.0,1.0596,-2.1969,9.29,-0.0003,0.0032,0.0008
26.02,1.2735,-2.1623,9.299,-0.0053,0.0108,-0.0037
26.04,1.1506,-2.2761,9.3939,0.0021,-0.0056,-0.001
26.06,1.0317,-2.1761,9.3776,-0.0134,0.0067,0.003
26.08,1.0375,-2.1474,9.3497,-0.0314,-0.0288,-0.0075
26.1,1.2135,-2.3096,9.5543,-0.0053,-0.0584,-0.0205
26.12,1.2656,-2.1088,9.2535,0.015,0.0059,-0.0027
26.14,1.5647,-2.0656,9.2915,0.0143,0.0651,-0.0183
26.16,1.2945,-2.1925,9.2119,0.068,0.1521,-0.0186
26.18,0.914,-2.1175,9.1698,0.0484,0.1483,0.003
26.2,1.2118,-2.2143,9.066,0.0059,0.034,0.0281
26.22,1.1655,-2.1227,8.8471,-0.0788,-0.2235,0.0825
26.24,1.2281,-2.1093,9.0364,-0.1434,-0.4332,0.1208
26.26,0.8333,-2.0597,8.8554,-0.2641,-0.4044,0.1426
26.28,0.7039,-2.4518,9.254,-0.2488,-0.0473,0.1272
26.3,0.7886,-2.2948,10.625,-0.152,0.3713,0.082
26.32,1.0101,-2.353,11.1341,-0.0268,0.5888,0.0161
26.34,1.4044,-2.5526,10.2295,0.1061,0.4539,-0.0667
26.36,1.8438,-2.6444,9.6855,0.1909,0.0462,-0.1385
26.38,1.6042,-2.4287,9.1374,0.2005,-0.3305,-0.1604
26.4,1.2424,-2.3308,8.8908,0.149,-0.453,-0.1166
26.42,1.0561,-2.287,9.0204,0.1002,-0.2613,-0.099
26.44,1.1523,-2.4405,9.0203,0.0085,0.0109,-0.0474
26.46,1.1238,-2.3291,9.0772,-0.059,0.1434,-0.0133
26.48,1.1285,-2.3118,9.1558,-0.075,0.1299,-0.0064
26.5,1.328,-2.4028,9.2231,-0.0512,0.0885,0.0164
26.52,1.1059,-2.3653,9.4208,-0.0462,0.0004,0.0211
26.54,1.1466,-2.3331,9.3536,-0.0087,-0.04,0.0109
26.56,1.0893,-2.7634,9.647,-0.01,-0.0089,0.019
26.58,1.1591,-2.8055,9.3924,0.002,-0.0425,0.0044
26.6,1.0134,-2.4879,9.485,0.0001,-0.0119,0.0125
26.62,1.2453,-2.4352,9.2896,-0.0346,0.004,0.0186
26.64,1.0803,-2.6466,9.3287,-0.0047,-0.0191,0.0204
26.66,1.06,-2.5556,9.4491,0.0097,-0.0002,0.0308
26.68,1.0796,-2.7458,9.3726,0.0395,0.0303,0.011
26.7,1.1175,-2.5479,9.1444,0.0408,0.1406,0.0232
26.72,1.1645,-2.7409,9.2852,0.0492,0.1776,0.0102
26.74,1.0004,-2.7523,9.1017,0.0044,0.1082,-0.0423
26.76,1.068,-2.7725,8.8446,-0.0279,-0.1106,-0.0613
26.78,0.981,-2.5293,8.7987,-0.1632,-0.3771,-0.1154
26.8,0.9473,-2.8633,8.6858,-0.2108,-0.442,-0.1479
26.82,0.5065,-2.1967,9.2354,-0.2351,-0.2301,-0.1326
26.84,0.4124,-2.3364,9.7297,-0.2191,0.2123,-0.1212
26.86,0.8917,-2.0062,11.1093,-0.1076,0.6028,-0.049
26.88,1.6347,-2.1507,11.4061,0.0633,0.5884,0.0292
26.9,1.2604,-2.2856,9.7342,0.1823,0.2329,0.1137
26.92,1.5025,-2.3731,9.1631,0.2701,-0.2238,0.1569
26.94,1.3309,-2.4028,8.8579,0.2164,-0.457,0.1471
26.96,1.1017,-2.4284,8.909,0.1367,-0.3918,0.1314
26.98,1.0591,-2.7293,8.9073,0.0282,-0.0913,0.0871
27.0,0.8576,-2.5103,9.0388,-0.0531,0.0949,0.0347
27.02,1.2253,-2.7044,9.2413,-0.0652,0.2,-0.0187
27.04,1.0215,-2.3491,9.2547,-0.0831,0.1459,-0.0044
27.06,1.1484,-2.398,9.348,-0.0451,0.0268,-0.0304
27.08,1.0658,-2.5059,9.3964,-0.0303,-0.038,-0.0296
27.1,1.2631,-2.1704,9.2946,-0.0086,-0.057,-0.0168
27.12,1.273,-2.2047,9.578,-0.0178,-0.0278,-0.0102
27.14,1.2755,-2.5994,9.4858,-0.0448,-0.0223,-0.0193
27.16,1.0126,-2.1128,9.5179,0.0119,-0.0305,-0.0026
27.18,1.2375,-2.0502,9.4047,0.0172,-0.0442,-0.0093
27.2,1.4994,-1.9341,9.4207,0.0383,-0.014,-0.0206
27.22,1.1879,-2.0892,9.2349,0.067,0.0698,-0.0118
27.24,1.021,-2.0356,9.1296,0.0441,0.1734,-0.0062
27.26,1.4027,-1.9057,9.1641,0.0634,0.1734,0.0185
27.28,1.2774,-1.8904,9.0321,-0.0099,-0.0075,0.0702
27.3,0.9769,-2.4097,8.9689,-0.0922,-0.3097,0.114
27.32,0.9871,-2.3405,8.9135,-0.2368,-0.4832,0.1346
27.34,0.7404,-2.3504,9.0348,-0.271,-0.3589,0.1789
27.36,0.8902,-2.513,9.526,-0.2895,0.0572,0.1523
27.38,0.9152,-2.7036,10.8918,-0.1509,0.5327,0.0727
27.4,1.1351,-2.7348,10.7975,0.0022,0.6992,-0.0172
27.42,1.731,-2.6087,10.2286,0.1669,0.3989,-0.1035
27.44,1.8334,-2.2019,9.4433,0.2718,-0.064,-0.1449
27.46,1.6538,-2.0591,8.8612,0.2376,-0.461,-0.1696
27.48,1.5063,-2.1151,8.8664,0.1383,-0.481,-0.1439
27.5,1.2009,-2.1723,9.0365,0.0686,-0.2047,-0.081
27.52,1.318,-2.1991,8.895,-0.0355,0.068,-0.0441
27.54,1.1017,-2.1745,9.2451,-0.0999,0.2182,-0.0046
27.56,1.0375,-2.3026,9.287,-0.0798,0.1469,0.0306
27.58,0.9741,-2.1509,9.4758,-0.0572,0.0657,0.0124
27.6,1.1952,-2.3991,9.3437,-0.0346,-0.0361,0.0027
27.62,1.0981,-2.4008,9.4813,-0.001,-0.0331,0.0294
27.64,1.324,-1.9392,9.4863,-0.0156,-0.028,0.0198
27.66,1.0657,-2.0208,9.314,-0.014,-0.0308,-0.0012
27.68,1.2847,-2.16,9.2317,-0.0121,0.0044,0.0211
27.7,1.285,-2.3529,9.4123,0.0083,-0.0181,0.0044
27.72,1.257,-2.2614,9.3098,0.0058,-0.0211,0.0266
27.74,1.2045,-2.2121,9.3183,0.0121,-0.0071,0.0024
27.76,1.1846,-2.3359,9.1458,0.0054,0.0361,0.0314
27.78,1.2153,-2.1342,9.1134,0.0313,0.1245,-0.0063
27.8,1.1348,-2.4047,9.1875,0.0549,0.169,-0.0048
27.82,1.1105,-2.5904,9.0271,0.0031,0.1019,-0.0315
27.84,1.3382,-2.5945,9.0304,-0.0314,-0.1165,-0.0875
27.86,1.0684,-2.3087,8.8798,-0.1485,-0.3806,-0.1135
27.88,0.7753,-2.1782,8.715,-0.2493,-0.4403,-0.1485
27.9,0.3186,-2.3716,9.24,-0.26,-0.1918,-0.147
27.92,0.5551,-2.0774,9.8366,-0.1643,0.2491,-0.1107
27.94,1.203,-2.2824,11.2261,-0.0912,0.5706,-0.0282
27.96,1.3035,-2.0847,10.7301,0.085,0.5312,0.0396
27.98,1.583,-2.2329,9.6073,0.1715,0.1749,0.1265
28.0,1.794,-2.5329,9.617,0.2222,-0.2592,0.145
28.02,1.4571,-2.1748,8.8488,0.1912,-0.4455,0.1551
28.04,1.1681,-2.5842,8.9827,0.0975,-0.3537,0.109
28.06,1.1385,-2.769,9.028,0.0043,-0.0862,0.0544
28.08,1.0914,-2.5625,9.1666,-0.0509,0.1105,0.0344
28.1,1.1238,-2.6824,9.0529,-0.0546,0.1904,0.0069
28.12,1.0817,-2.5976,9.167,-0.0845,0.1086,-0.0205
28.14,1.0021,-2.816,9.622,-0.0645,0.026,-0.0348
28.16,1.0907,-2.69,9.3618,-0.0155,-0.0452,-0.0039
28.18,1.229,-2.5778,9.5729,-0.0247,-0.0319,0.0157
28.2,1.1046,-2.5495,9.3949,0.0227,-0.0297,-0.0171
28.22,0.8923,-2.5718,9.4879,0.0085,-0.0022,-0.0109
28.24,0.8399,-2.55,9.4323,-0.0309,-0.0324,0.0053
28.26,1.1683,-2.6719,9.6456,0.0113,-0.0477,-0.0069
28.28,1.1829,-2.4492,9.1472,0.0067,-0.0181,-0.0261
28.3,1.052,-2.5647,9.3506,0.0482,0.0758,-0.0296
28.32,0.9397,-2.6679,9.1868,0.0473,0.1104,-0.0054
28.34,0.9058,-2.533,9.0561,0.0655,0.1456,0.0092
28.36,1.1437,-2.4773,9.1322,0.0206,-0.0104,0.0711
28.38,0.9448,-2.5425,8.9559,-0.0493,-0.2323,0.0933
28.4,0.7932,-2.4311,9.1391,-0.1585,-0.42,0.1251
28.42,0.7167,-2.7437,8.9748,-0.2003,-0.302,0.1513
28.44,0.7214,-2.8984,9.7129,-0.2178,0.0336,0.1323
28.46,0.7805,-2.7704,10.469,-0.1206,0.43,0.0527
28.48,0.9727,-2.799,10.677,0.0251,0.5618,-0.0193
28.5,1.73,-2.6389,10.5292,0.1573,0.364,-0.0608
28.52,1.5895,-2.5217,9.4527,0.2172,-0.06,-0.1289
28.54,1.191,-2.5102,9.0001,0.2032,-0.3728,-0.1361
28.56,1.1554,-2.4395,8.9137,0.1337,-0.4096,-0.1115
28.58,1.1821,-2.4439,9.1433,0.0518,-0.2079,-0.0948
28.6,1.0761,-2.1298,9.0943,-0.0172,0.0428,-0.0583
28.62,1.0504,-2.3287,9.0474,-0.0466,0.1669,-0.0056
28.64,0.9799,-2.1718,9.2223,-0.0847,0.119,0.0176
28.66,1.0746,-2.3608,9.3704,-0.0474,0.0388,0.0391
28.68,1.2354,-2.3886,9.2469,-0.0235,-0.0009,0.0273
28.7,1.1674,-2.3214,9.6023,-0.0395,-0.0211,0.011
28.72,1.2279,-2.2418,9.3827,-0.0194,-0.0031,-0.0031
28.74,1.1665,-2.3795,9.5021,-0.0042,-0.0006,0.0022
28.76,1.2313,-2.1931,9.2385,0.0119,-0.0289,0.0025
28.78,1.1868,-2.1879,9.3543,-0.0,-0.0464,0.0005
28.8,1.2361,-2.1355,9.6147,-0.0001,-0.0241,0.0175
28.82,1.2444,-2.3606,9.5563,0.028,0.0163,0.032
28.84,1.2894,-2.4883,9.3473,0.0518,0.1151,0.0235
28.86,1.2768,-2.2655,9.0115,0.0475,0.1654,0.0244
28.88,1.0869,-2.3099,9.2132,0.0114,0.1092,-0.0466
28.9,1.0595,-2.4122,9.0332,-0.0356,-0.0785,-0.0689
28.92,0.9857,-2.0698,9.0265,-0.125,-0.3493,-0.106
28.94,0.8202,-2.0907,8.8381,-0.2048,-0.4601,-0.1486
28.96,0.9093,-2.128,9.2567,-0.261,-0.2264,-0.1497
28.98,0.5542,-1.8425,9.6694,-0.1851,0.1904,-0.1216
29.0,1.1919,-1.8631,11.1797,-0.0739,0.5728,-0.0314
29.02,1.438,-2.0596,11.0639,0.0714,0.5747,0.0264
29.04,1.7142,-1.9731,9.799,0.1941,0.2335,0.1076
29.06,1.8593,-2.1137,9.0854,0.2004,-0.2116,0.1503
29.08,1.4668,-2.2606,8.7908,0.1979,-0.4379,0.1451
29.1,1.1274,-2.0633,8.9573,0.0998,-0.3675,0.1083
29.12,0.972,-2.178,9.0233,0.0055,-0.1106,0.058
29.14,1.1841,-2.3782,9.0105,-0.0465,0.1065,0.0315
29.16,0.9719,-2.3725,9.2701,-0.085,0.1863,0.0031
29.18,1.1035,-2.4142,9.3389,-0.0525,0.1035,-0.0201
29.2,1.0025,-2.2848,9.2933,-0.0669,0.0155,-0.0306
29.22,1.1109,-2.4161,9.4349,-0.0229,-0.0228,-0.0199
29.24,1.2319,-2.4731,9.5301,-0.0325,-0.0423,0.0016
29.26,1.4063,-2.2257,9.5058,-0.0102,-0.0501,-0.0042
29.28,1.0069,-2.3219,9.2272,-0.017,-0.0101,0.0033
29.3,1.1481,-2.474,9.3149,0.0117,0.0057,0.0063
29.32,1.2268,-2.3697,9.2923,0.0043,-0.0037,-0.0168
29.34,1.0383,-2.4234,9.4521,0.0124,-0.0241,-0.0055
29.36,1.1113,-2.3101,9.4422,0.0457,-0.0209,-0.0243
29.38,1.2878,-2.3022,9.1543,0.0549,0.0594,-0.0182
29.4,1.1594,-2.1807,9.2077,0.0476,0.1196,-0.018
29.42,0.9812,-2.3886,9.0995,0.067,0.1763,0.0081
29.44,1.0671,-2.4304,9.0675,0.0042,0.078,0.0318
29.46,1.3087,-2.3701,9.0837,-0.0436,-0.1978,0.0754
29.48,0.8449,-2.2848,8.8221,-0.1684,-0.4045,0.1384
29.5,0.8989,-2.5327,8.8386,-0.2404,-0.4244,0.163
29.52,0.1292,-2.6485,9.266,-0.2604,-0.0868,0.1334
29.54,0.3432,-2.6794,9.9225,-0.2053,0.3675,0.1065
29.56,0.8813,-2.7447,10.8802,-0.0739,0.6344,0.025
29.58,1.4562,-2.8364,11.1073,0.1167,0.5208,-0.0592
29.6,1.3905,-2.7543,9.4601,0.2252,0.0642,-0.1267
29.62,1.3512,-2.752,9.0062,0.253,-0.3436,-0.1734
29.64,1.4263,-2.7499,8.7858,0.1816,-0.4883,-0.1562
29.66,1.1558,-2.414,8.9747,0.0799,-0.315,-0.1166
29.68,1.1173,-2.5204,9.046,0.0081,-0.0367,-0.0461
29.7,0.8184,-2.653,9.2122,-0.0479,0.1322,-0.0189
29.72,0.8961,-2.4529,9.05,-0.0791,0.1769,0.0054
29.74,0.9108,-2.4096,9.1717,-0.0704,0.1007,0.0047
29.76,1.1646,-2.3869,9.23,-0.0202,-0.0169,0.0215
29.78,1.2378,-2.6182,9.6507,-0.0053,-0.052,0.0174
29.8,0.9201,-2.6507,9.3035,0.0126,-0.0248,0.0039
29.82,1.2039,-2.4528,9.3029,-0.0241,-0.0307,0.0097
29.84,1.2532,-2.4164,9.3347,-0.0377,0.0121,-0.0031
29.86,1.3513,-2.2059,9.7384,-0.004,0.0031,0.0031
29.88,1.1602,-2.2192,9.8372,-0.0338,-0.0048,-0.0041
29.9,1.352,-2.4013,9.8004,0.0015,-0.0475,0.0007
29.92,1.3497,-2.0248,9.8012,-0.0314,-0.0377,0.0025
29.94,0.9598,-2.7004,9.4346,0.0216,-0.0209,0.0394
29.96,1.1505,-2.2981,9.3889,0.0532,0.0557,0.0092
29.98,1.1094,-2.7072,9.1106,0.067,0.1148,0.0266
30.0,0.9856,-2.4722,8.8251,0.0464,0.1788,-0.0046
30.02,1.0006,-2.4104,9.0809,-0.0033,0.0604,-0.0499
30.04,1.0972,-2.6006,8.7727,-0.0343,-0.1852,-0.0921
30.06,1.026,-2.4186,8.6801,-0.1761,-0.399,-0.1126
30.08,0.9057,-2.2604,8.7969,-0.2224,-0.3751,-0.1556
30.1,0.8316,-2.2222,9.6424,-0.221,-0.0908,-0.1425
30.12,0.6971,-2.0407,10.3979,-0.1452,0.3322,-0.0842
30.14,1.456,-1.7817,11.3837,-0.003,0.5745,-0.0023
30.16,1.8633,-2.0116,10.8817,0.1028,0.4356,0.0305
30.18,2.0808,-1.8966,9.8193,0.2125,0.0476,0.1021
30.2,1.7059,-2.0407,9.4164,0.2082,-0.31,0.125
30.22,1.3435,-2.3103,8.8881,0.1938,-0.4307,0.1272
30.24,1.1362,-2.4927,9.0104,0.1052,-0.256,0.104
30.26,1.2888,-2.5192,9.0056,-0.003,-0.0288,0.0423
30.28,1.0811,-2.382,9.2632,-0.0683,0.1624,0.018
30.3,0.9329,-2.4518,8.9519,-0.0857,0.1423,-0.0099
30.32,1.147,-2.281,9.045,-0.0713,0.0776,-0.0115
30.34,1.2966,-2.4069,9.5922,-0.0277,-0.0024,-0.0192
30.36,1.3416,-2.2602,9.3485,-0.0437,-0.0288,0.0051
30.38,1.4469,-2.2908,9.4585,0.0088,-0.0312,0.0057
30.4,1.2194,-2.3575,9.3406,-0.0023,0.0082,0.0013
30.42,1.354,-2.0941,9.2286,-0.0015,0.0017,-0.0074
30.44,1.1671,-2.365,9.3414,0.0187,-0.0107,0.0135
30.46,1.2276,-1.8394,9.4912,-0.0103,-0.0085,-0.0003
30.48,1.2842,-2.1401,9.349,0.0175,0.0034,-0.0076
30.5,1.4278,-2.3074,9.3712,-0.0173,-0.0416,-0.0251
30.52,1.3816,-2.0686,9.4119,0.0389,-0.0229,-0.0268
30.54,1.2142,-1.8811,9.2149,0.049,0.0273,-0.0027
30.56,1.1633,-2.1849,9.4656,0.0754,0.1115,-0.0214
30.58,1.0641,-2.119,9.0969,0.0774,0.187,-0.0008
30.6,1.2765,-2.2969,9.2089,0.0366,0.1241,0.0241
30.62,1.2293,-2.0034,9.0396,-0.053,-0.0847,0.0633
30.64,1.1827,-2.0758,8.6877,-0.1282,-0.3649,0.1135
30.66,1.1434,-2.4653,8.8107,-0.2389,-0.4459,0.1433
30.68,0.8188,-2.2993,9.0631,-0.2524,-0.2474,0.137
30.7,0.7855,-2.4804,10.2922,-0.1812,0.2062,0.11
30.72,1.0233,-2.6047,10.6526,-0.089,0.5583,0.0368
30.74,1.1383,-2.6244,10.6771,0.0977,0.57,-0.0372
30.76,1.8105,-2.6292,10.3583,0.1632,0.2124,-0.1168
30.78,1.7244,-2.704,8.8945,0.2465,-0.2284,-0.1554
30.8,1.3896,-2.5271,8.856,0.2302,-0.4599,-0.1475
30.82,1.2205,-2.447,8.9963,0.1465,-0.3628,-0.1264
30.84,1.2295,-2.2054,8.9114,0.0432,-0.1263,-0.085
30.86,1.0564,-2.2374,9.0891,-0.045,0.0848,-0.0316
30.88,1.0346,-2.3408,9.2863,-0.0781,0.1866,0.0074
30.9,1.1344,-2.3047,9.035,-0.0649,0.1155,0.0213
30.92,0.9302,-2.4549,9.4003,-0.057,0.0407,0.0226
30.94,1.163,-2.5352,9.5103,0.0152,-0.0158,-0.0054
30.96,1.1193,-2.5277,9.6076,-0.0076,-0.0461,0.0075
30.98,1.1142,-2.575,9.42,-0.0065,-0.076,0.0077
31.0,1.1828,-2.6369,9.4357,0.002,-0.0028,0.0382
31.02,1.0466,-2.2795,9.5513,0.0297,0.0237,0.0452
31.04,1.134,-2.5588,9.299,0.0338,0.1161,0.0281
31.06,1.3351,-2.7406,9.2445,0.0999,0.1763,0.0073
31.08,0.9092,-2.8028,8.9411,0.0506,0.1488,-0.0228
31.1,1.2438,-2.6923,8.9824,-0.0263,-0.0589,-0.0735
31.12,1.0008,-2.4479,8.7713,-0.1289,-0.3399,-0.0924
31.14,0.8592,-2.697,9.0756,-0.2145,-0.4601,-0.1503
31.16,0.6439,-2.5776,8.9457,-0.2542,-0.3309,-0.1477
31.18,0.3547,-2.2182,9.6152,-0.2018,0.1506,-0.1163
31.2,0.727,-2.3793,11.2667,-0.1122,0.5505,-0.0419
31.22,1.1683,-2.4584,11.045,0.0219,0.6338,0.033
31.24,1.444,-2.3641,10.0103,0.1805,0.2988,0.0974
31.26,1.4388,-2.4251,9.1348,0.2385,-0.1467,0.1525
31.28,1.323,-2.5488,8.8417,0.2456,-0.4474,0.1555
31.3,1.2661,-2.398,8.8848,0.1209,-0.4362,0.1253
31.32,0.8555,-2.7583,8.9105,0.0375,-0.1826,0.0813
31.34,1.2943,-2.285,8.9842,-0.0356,0.1156,0.0243
31.36,0.8634,-2.4442,9.2696,-0.0527,0.1972,0.0062
31.38,0.8566,-2.327,9.1637,-0.0589,0.1487,-0.0175
31.4,0.9543,-2.3109,9.1368,-0.0627,0.0535,-0.0268
31.42,1.0401,-2.3135,9.4881,-0.0431,-0.0284,-0.0294
31.44,1.0569,-2.4639,9.3306,0.008,-0.0279,-0.0159
31.46,1.225,-2.6584,9.6346,-0.0229,-0.0152,-0.0142
31.48,1.2047,-2.289,9.4185,-0.0108,-0.0245,-0.0107
31.5,0.9879,-2.4427,9.4934,0.015,-0.0203,-0.027
31.52,1.1926,-2.424,9.4066,0.055,-0.0275,-0.0163
31.54,1.3557,-2.3842,9.3372,0.0323,0.0286,-0.007
31.56,1.3016,-2.4104,9.2841,0.0565,0.1149,-0.0212
31.58,1.2174,-2.4647,9.0997,0.039,0.1672,0.0061
31.6,1.2588,-2.1126,9.0763,0.0177,0.0805,0.0291
31.62,1.2564,-2.2945,8.8938,-0.0331,-0.1351,0.0665
31.64,1.0601,-2.1979,8.9295,-0.1475,-0.3538,0.1109
31.66,0.9022,-2.289,8.9282,-0.202,-0.3688,0.1332
31.68,0.4484,-2.5318,9.2022,-0.2155,-0.1521,0.1134
31.7,0.8918,-2.463,10.3917,-0.1793,0.2877,0.1011
31.72,1.0546,-2.2744,10.6179,-0.0615,0.5412,0.0286
31.74,1.261,-2.666,10.3494,0.0787,0.5008,-0.0392
31.76,1.9025,-2.2321,9.7064,0.1638,0.1322,-0.1024
31.78,1.5677,-2.2823,9.1031,0.2015,-0.2444,-0.1399
31.8,1.173,-2.0823,9.0401,0.1459,-0.4153,-0.1271
31.82,1.3873,-2.314,8.84,0.0842,-0.2995,-0.1232
31.84,1.2498,-1.8181,9.0067,0.0139,-0.0646,-0.0722
31.86,1.3397,-2.1898,9.1562,-0.0571,0.1168,-0.0129
31.88,1.2859,-2.1696,9.0836,-0.0425,0.1431,0.0308
31.9,0.9841,-2.3709,9.245,-0.0492,0.0937,0.0063
31.92,1.0773,-2.1606,9.137,-0.0454,0.0099,0.0151
31.94,1.1921,-2.2105,9.3742,-0.0211,-0.0196,0.0377
31.96,1.4814,-2.1999,9.8387,-0.0208,-0.0276,0.0175
31.98,1.2883,-2.2048,9.3994,-0.0253,0.006,0.016
32.0,1.3429,-2.1742,9.2734,0.011,0.0246,0.0141
32.02,1.3516,-2.2593,9.2445,0.0149,0.0016,0.0111
32.04,1.336,-2.0376,9.4678,-0.0153,-0.0141,-0.0024
32.06,1.0652,-2.0992,9.5373,0.0192,-0.0572,0.0089
32.08,1.2212,-2.1792,9.7125,0.0157,-0.0033,0.0422
32.1,1.3839,-2.1132,9.0963,0.0333,0.0669,0.0198
32.12,1.3845,-2.2999,9.2786,0.0803,0.192,0.0278
32.14,1.112,-2.6587,9.0647,0.0668,0.2206,-0.0009
32.16,1.1065,-2.5436,8.9984,0.028,0.1015,-0.0405
32.18,1.1207,-2.4311,8.8595,-0.0754,-0.2185,-0.0775
32.2,0.9726,-2.2431,8.6484,-0.1948,-0.5137,-0.1578
32.22,0.5164,-2.4569,8.8431,-0.2704,-0.521,-0.193
32.24,0.0911,-2.2537,9.356,-0.2632,-0.122,-0.1759
32.26,0.4843,-2.2446,10.7624,-0.2088,0.392,-0.1097
32.28,1.0293,-2.2294,11.747,-0.0338,0.7296,-0.0332
32.3,1.4429,-2.3145,10.7881,0.1443,0.6129,0.0673
32.32,1.7074,-2.1194,9.928,0.2581,0.0839,0.1445
32.34,1.5528,-2.4724,9.0651,0.2906,-0.3832,0.1786
32.36,1.1099,-2.6282,8.8126,0.2287,-0.5505,0.1786
32.38,1.2005,-2.7338,8.8456,0.0891,-0.3501,0.1249
32.4,1.3305,-2.5844,9.0572,0.01,-0.0633,0.0764
32.42,1.1667,-2.8125,9.2055,-0.1029,0.1745,0.0255
32.44,0.8689,-2.68,8.9125,-0.0824,0.1837,-0.0101
32.46,0.8283,-2.6662,9.2236,-0.064,0.1194,-0.0236
32.48,1.0253,-2.5158,9.3851,-0.063,-0.0181,-0.0144
32.5,0.8785,-2.4971,9.4204,0.007,-0.0627,-0.0201
32.52,1.0989,-2.3827,9.4088,-0.0404,-0.0487,-0.0003
32.54,1.1528,-2.6862,9.1822,0.0161,-0.0159,0.0011
32.56,0.959,-2.4774,9.3562,0.0256,-0.0177,0.0032
32.58,1.018,-2.6593,9.2468,-0.0062,-0.0161,-0.0048
32.6,0.8046,-2.5655,9.4939,-0.0141,-0.0542,-0.0137
32.62,1.0101,-2.7744,9.3007,0.0279,-0.0329,-0.0224
32.64,1.042,-2.3796,9.4487,0.0386,0.0368,-0.0335
32.66,0.9069,-2.6704,9.1768,0.0441,0.166,-0.0005
32.68,1.3165,-2.1636,9.5577,0.0551,0.1774,-0.0035
32.7,0.9214,-2.4674,9.0597,0.038,0.1122,0.0208
32.72,1.2191,-2.2735,9.1749,-0.0127,-0.0863,0.0971
32.74,1.1917,-2.4443,9.1523,-0.0955,-0.3552,0.1277
32.76,1.2446,-2.1516,9.4539,-0.1756,-0.4378,0.1457
32.78,0.5285,-2.6538,9.1872,-0.2425,-0.2257,0.1274
32.8,0.4949,-2.8573,9.6895,-0.2021,0.2112,0.11
32.82,0.9966,-2.7989,10.9148,-0.0878,0.578,0.0306
32.84,1.1702,-2.5953,11.2702,0.064,0.572,-0.0262
32.86,1.543,-2.9165,9.9105,0.1723,0.2366,-0.1164
32.88,1.6738,-2.3508,9.4105,0.2355,-0.1761,-0.1546
32.9,1.4853,-2.5359,9.1232,0.2138,-0.434,-0.1351
32.92,0.9883,-2.4609,8.871,0.1222,-0.3869,-0.1266
32.94,1.1225,-2.2951,9.138,0.0276,-0.1044,-0.068
32.96,0.9874,-2.2528,9.1449,-0.0279,0.1117,-0.0201
32.98,0.8948,-2.2164,8.9379,-0.0508,0.1714,-0.0074
33.0,1.0335,-2.6037,9.4143,-0.0599,0.1017,0.0164
33.02,1.0002,-2.2279,9.2742,-0.0393,0.0405,0.0092
33.04,0.9554,-2.2512,9.4951,-0.0081,-0.0528,0.0023
33.06,1.2992,-2.1591,9.3643,0.004,-0.0252,0.0222
33.08,0.8862,-2.0733,9.3388,-0.0189,0.0031,0.0132
33.1,1.224,-2.2676,9.4005,-0.0058,0.0159,0.0047
33.12,0.9045,-2.3471,9.2882,0.029,-0.001,0.0066
33.14,0.9711,-2.4677,9.3394,-0.0073,-0.0383,0.0033
33.16,1.2807,-2.4489,9.5272,-0.0101,-0.0378,-0.0149
33.18,1.3545,-2.1991,9.3887,0.0319,-0.0121,0.0443
33.2,1.2629,-2.2117,9.2494,0.0475,0.0674,0.0207
33.22,1.2119,-2.4473,9.0755,0.0883,0.1682,0.0176
33.24,1.178,-2.2383,9.0567,0.0372,0.1998,-0.023
33.26,1.0033,-2.2164,8.9449,0.0199,0.0587,-0.0408
33.28,1.27,-2.3339,8.8107,-0.0553,-0.2268,-0.1103
33.3,0.769,-2.3111,8.8818,-0.1834,-0.4584,-0.1476
33.32,0.7112,-2.1143,8.9199,-0.2489,-0.469,-0.1472
33.34,0.8467,-2.0962,9.435,-0.2756,-0.0762,-0.1347
33.36,0.4706,-1.9498,10.3595,-0.1622,0.3915,-0.0977
33.38,0.9765,-2.002,11.1947,-0.0043,0.6797,-0.0038
33.4,1.5684,-2.0635,11.2444,0.1204,0.5625,0.0798
33.42,1.9229,-2.2799,9.673,0.2614,0.0602,0.148
33.44,1.5813,-1.9534,8.9906,0.2858,-0.3828,0.1793
33.46,1.4105,-2.3155,8.777,0.2104,-0.5206,0.1428
33.48,1.2569,-2.4463,8.9258,0.0952,-0.3202,0.1124
33.5,1.1369,-2.3605,9.0372,0.029,-0.012,0.0706
33.52,1.2296,-2.333,8.959,-0.0381,0.177,0.0297
33.54,1.0643,-2.3819,9.1235,-0.0631,0.1783,-0.017
33.56,1.0021,-2.4296,9.3469,-0.0702,0.0735,-0.0123
33.58,1.0557,-2.4474,9.4668,-0.0512,0.0135,-0.0123
33.6,1.0723,-2.3603,9.4738,0.0096,-0.0376,-0.007
33.62,0.8692,-2.5736,9.1105,0.0328,-0.0594,-0.0323
33.64,1.1127,-2.4431,9.3929,0.0174,-0.0298,-0.0063
33.66,1.351,-2.3161,9.398,-0.0191,0.0242,-0.0143
33.68,1.0227,-2.3543,9.3487,-0.0003,0.0056,-0.0079
33.7,1.2752,-2.3154,9.3879,0.0014,0.007,0.0054
33.72,1.0474,-2.3657,9.3976,-0.0073,0.0019,0.0155
33.74,0.7624,-2.5047,9.4441,-0.0042,-0.0161,-0.0072
33.76,1.0337,-2.751,9.4142,-0.0137,-0.032,-0.0091
33.78,0.9276,-2.4798,9.3408,0.0153,-0.0167,-0.0275
33.8,0.9563,-2.5906,9.354,0.0354,0.0083,-0.0014
33.82,0.9844,-2.2511,9.3766,0.0515,0.0968,-0.0253
33.84,1.0093,-2.5085,9.4673,0.0747,0.1544,-0.0179
33.86,1.1282,-2.5109,8.8795,0.0446,0.1301,0.0079
33.88,1.1132,-2.375,9.0031,0.0215,-0.0217,0.0591
33.9,0.9224,-2.2246,8.8264,-0.081,-0.2787,0.0867
33.92,0.9378,-2.8092,8.9621,-0.1794,-0.4319,0.1347
33.94,0.6622,-2.7572,8.9847,-0.2481,-0.3334,0.1338
33.96,0.5999,-2.7062,10.1145,-0.2012,0.0642,0.1054
33.98,0.532,-2.9669,10.6334,-0.1175,0.4756,0.0671
34.0,0.9623,-2.854,10.4976,0.0169,0.6117,-0.018
34.02,1.414,-2.6894,10.5775,0.169,0.3604,-0.0874
34.04,1.5126,-2.6189,9.3464,0.2149,-0.082,-0.1313
34.06,1.0627,-2.6503,8.7838,0.2316,-0.3966,-0.1425
34.08,0.999,-2.6277,8.7485,0.1359,-0.4052,-0.1371
34.1,1.2529,-2.3166,8.7219,0.0822,-0.1864,-0.1025
34.12,0.9025,-2.6234,8.9168,-0.0499,0.0723,-0.0609
34.14,0.7837,-2.3301,9.1815,-0.0526,0.2022,0.0052
34.16,1.0747,-2.5381,9.3227,-0.0805,0.1404,0.0045
34.18,0.8207,-2.6558,9.3554,-0.0501,0.0469,0.0314
34.2,0.9063,-2.605,9.3161,-0.0158,-0.0223,0.0029
34.22,1.043,-2.7157,9.736,-0.0111,-0.0544,0.0189
34.24,1.0289,-2.5168,9.4059,0.0295,-0.0393,-0.0065
34.26,1.0506,-2.9122,9.2777,0.0184,-0.013,0.0103
34.28,0.6374,-2.4701,9.3388,-0.0054,-0.0191,0.0053
34.3,0.7668,-2.4984,9.3953,-0.0397,-0.018,-0.0056
34.32,1.096,-2.5677,9.3907,-0.0131,-0.0388,0.0002
34.34,1.2908,-2.6403,9.4257,0.0516,-0.014,0.007
34.36,1.1802,-2.4909,9.302,0.035,0.0258,0.012
34.38,1.0266,-2.5796,9.0794,0.0482,0.1325,-0.003
34.4,1.2612,-2.6094,9.1295,0.0518,0.1942,-0.0041
34.42,1.0792,-2.5733,8.9566,0.0239,0.0832,-0.0487
34.44,0.9189,-2.7795,8.8405,-0.0546,-0.177,-0.0672
34.46,0.9196,-2.3446,8.7378,-0.1509,-0.4568,-0.1423
34.48,0.5991,-2.2177,8.7953,-0.2471,-0.4827,-0.1578
34.5,0.626,-1.9836,9.4523,-0.2744,-0.1326,-0.1528
34.52,0.6395,-1.6741,10.4074,-0.2159,0.3539,-0.0998
34.54,0.8795,-1.9465,11.4794,-0.0486,0.6743,-0.0293
34.56,1.1611,-1.9509,10.6487,0.1419,0.5804,0.046
34.58,1.701,-2.0015,9.7234,0.2487,0.1289,0.1338
34.6,1.8465,-2.1812,9.0505,0.2892,-0.3495,0.1671
34.62,1.4125,-2.5452,8.8716,0.2144,-0.4891,0.1478
34.64,1.2033,-2.457,8.8251,0.0872,-0.3598,0.123
34.66,1.426,-2.3697,9.0328,-0.008,-0.0427,0.0615
34.68,1.089,-2.2722,9.1679,-0.0868,0.1598,0.0271
34.7,0.9162,-2.0163,9.1304,-0.0898,0.1949,-0.0051
34.72,1.1094,-2.4891,9.251,-0.0668,0.1103,-0.0214
34.74,0.7508,-2.2545,9.4261,-0.018,-0.0013,-0.0322
34.76,1.2522,-2.3368,9.4262,-0.0334,-0.045,-0.0194
34.78,1.2168,-2.3603,9.4081,-0.0187,-0.0197,-0.0175
34.8,1.1468,-2.2885,9.4706,-0.0188,-0.0289,-0.0058
34.82,1.1737,-2.2593,9.4134,0.0221,-0.0299,-0.0146
34.84,1.3712,-2.4606,9.7475,0.0279,-0.0141,-0.0333
34.86,1.2972,-2.059,9.1435,0.0459,0.0521,-0.0311
34.88,1.1779,-2.1954,9.3028,0.1022,0.1589,-0.0273
34.9,1.129,-1.9361,9.1009,0.1071,0.197,0.0042
34.92,1.1876,-2.0612,9.0951,0.015,0.0834,0.0417
34.94,1.1039,-2.2164,8.7915,-0.0516,-0.2103,0.0754
34.96,1.0606,-2.1308,8.7936,-0.1719,-0.4976,0.1518
34.98,0.8374,-2.1562,9.0203,-0.273,-0.5369,0.1637
35.0,0.5583,-2.4923,9.264,-0.3105,-0.1953,0.1638
35.02,0.5703,-2.6814,10.4996,-0.2053,0.3755,0.1041
35.04,0.8215,-2.725,11.6244,-0.0558,0.7455,0.0271
35.06,1.4041,-2.6142,10.7926,0.1202,0.6406,-0.0932
35.08,1.8498,-2.6822,9.9398,0.2672,0.1536,-0.1486
35.1,1.6691,-2.2925,9.2806,0.2995,-0.3633,-0.1883
35.12,1.3375,-1.9869,8.8107,0.2579,-0.5419,-0.1828
35.14,1.1719,-2.4198,8.9371,0.1267,-0.4154,-0.1425
35.16,1.323,-2.4032,9.0411,0.0282,-0.0375,-0.0621
35.18,1.0912,-2.3592,8.968,-0.0602,0.1704,-0.0139
35.2,1.2232,-2.1328,9.1999,-0.0587,0.2287,0.0029
35.22,0.8598,-2.4463,9.2449,-0.0457,0.0967,0.045
35.24,0.7183,-2.3728,9.3731,-0.0391,0.0084,0.0201
35.26,0.9505,-2.2057,9.4652,0.0093,-0.0443,0.0165
35.28,0.8845,-2.3615,9.4729,0.035,-0.0419,0.0057
35.3,1.0074,-2.5336,9.491,0.0143,-0.0288,-0.0027
35.32,0.8441,-2.472,9.3357,-0.0154,0.0058,0.0129
35.34,1.1144,-2.3614,9.3972,-0.0122,-0.0053,-0.0
35.36,0.801,-2.4074,9.2836,-0.0014,0.0307,0.0027
35.38,0.8963,-2.4995,9.225,-0.0014,0.0077,0.0017
35.4,1.0555,-2.3756,9.4421,0.0083,-0.0045,0.0184
35.42,0.7861,-2.717,9.4886,0.008,-0.0321,-0.0017
35.44,1.3564,-2.5311,9.2255,0.0003,-0.0382,0.0319
35.46,0.8912,-2.4757,9.1537,0.0479,0.0182,0.0163
35.48,1.0699,-2.7606,9.5075,0.0565,0.1092,0.0423
35.5,1.168,-2.7032,9.0538,0.0695,0.2016,0.0217
35.52,1.0446,-2.5927,9.0042,0.0452,0.1655,-0.038
35.54,0.8769,-2.8121,8.995,-0.0125,-0.072,-0.0561
35.56,1.0108,-2.6836,8.7254,-0.135,-0.3623,-0.112
35.58,0.7806,-2.7592,8.8548,-0.2591,-0.5318,-0.1877
35.6,0.4758,-2.5439,9.0852,-0.2809,-0.3247,-0.1798
35.62,0.3482,-2.4025,9.7309,-0.2238,0.137,-0.1373
35.64,0.4924,-2.0479,10.8264,-0.0905,0.6041,-0.043
35.66,1.6175,-2.3092,11.4856,0.0547,0.7285,0.0377
35.68,1.5381,-1.7546,10.1709,0.2238,0.3314,0.0988
35.7,1.6883,-2.3771,9.3304,0.2805,-0.1805,0.1786
35.72,1.3804,-2.6059,8.7515,0.2643,-0.5247,0.171
35.74,0.9765,-2.5105,8.6539,0.1937,-0.4695,0.1313
35.76,0.9267,-2.7053,8.7618,0.0535,-0.1636,0.1148
35.78,0.9993,-2.6616,8.8624,-0.0363,0.0823,0.0316
35.8,1.003,-2.873,9.1696,-0.0693,0.1888,0.0056
35.82,0.9562,-2.557,9.3564,-0.0565,0.146,-0.0121
35.84,1.0194,-2.6085,9.2425,-0.0284,0.0618,-0.0164
35.86,1.2686,-2.5371,9.4536,-0.0007,-0.0362,-0.0236
35.88,1.3097,-2.2716,9.4188,0.0091,-0.0251,-0.0158
35.9,1.126,-2.2905,9.3273,0.0103,0.0013,-0.0154
35.92,1.0065,-2.6911,9.4701,0.0421,0.005,-0.0252
35.94,1.3278,-2.3964,9.2807,0.0207,-0.0015,0.0108
35.96,0.914,-2.4503,9.1459,-0.0213,-0.0138,-0.0125
35.98,1.2859,-2.5356,9.2809,0.0067,0.0107,-0.013
36.0,0.949,-2.3047,9.4304,-0.0013,-0.0146,-0.006
36.02,1.2691,-2.1154,9.2909,-0.0379,-0.0594,-0.0014
36.04,1.1191,-2.0816,9.3217,0.0274,0.0126,-0.0261
36.06,1.3482,-2.2037,9.1794,0.0617,0.0857,-0.013
36.08,1.1036,-2.1719,9.1213,0.074,0.175,-0.0244
36.1,1.0659,-2.1649,9.0329,0.0503,0.1719,0.0074
36.12,1.044,-2.1015,9.0059,-0.0012,-0.0348,0.0633
36.14,1.1391,-2.1268,8.8201,-0.0991,-0.3158,0.1115
36.16,0.6088,-2.2156,8.9669,-0.1676,-0.4882,0.147
36.18,0.7528,-2.2486,9.0944,-0.2535,-0.3666,0.1674
36.2,0.7239,-2.3253,9.5906,-0.2365,0.0818,0.1471
36.22,0.837,-2.5608,10.9479,-0.1173,0.5333,0.0724
36.24,1.1499,-2.6161,11.0913,0.0266,0.6563,-0.0168
36.26,1.6533,-2.4352,10.2126,0.184,0.3885,-0.1026
36.28,1.6897,-2.2472,9.191,0.2321,-0.0914,-0.1242
36.3,1.6666,-1.9079,8.8678,0.253,-0.4389,-0.146
36.32,1.3315,-2.3372,8.8749,0.1751,-0.4445,-0.1521
36.34,1.1268,-2.4346,8.6841,0.0585,-0.2025,-0.0836
36.36,1.1807,-2.3142,8.8714,-0.0117,0.0811,-0.0451
36.38,0.8941,-2.1285,9.3852,-0.0856,0.1901,-0.0055
36.4,1.0509,-2.0726,9.4664,-0.0621,0.1549,0.0111
36.42,1.2363,-2.1855,9.1469,-0.069,0.0383,0.0222
36.44,1.2003,-2.1373,9.4121,-0.0082,-0.0093,0.0129
36.46,1.4026,-2.1648,9.4887,0.0064,-0.033,0.0001
36.48,1.1087,-2.2947,9.6112,0.0242,-0.0515,0.0076
36.5,1.1248,-2.1758,9.4163,0.0107,-0.0031,-0.0115
36.52,1.0468,-2.5958,9.4017,-0.0228,0.0023,-0.0095
36.54,0.9897,-2.3085,9.4305,0.0147,0.0102,-0.0077
36.56,1.1265,-2.2591,9.3495,0.0086,-0.0052,0.0111
36.58,0.9119,-2.5359,9.5216,0.02,-0.0232,0.0068
36.6,1.108,-2.4825,9.3505,-0.0004,-0.033,0.0262
36.62,1.1108,-2.4322,9.4462,0.0288,0.0255,0.0182
36.64,1.0476,-2.3517,9.0899,0.0699,0.0975,0.0257
36.66,1.0286,-2.3618,9.2175,0.0708,0.1738,0.0145
36.68,1.0597,-2.7342,9.1315,0.0549,0.1368,-0.0203
36.7,0.9364,-2.5903,8.9521,-0.0136,-0.0723,-0.0721
36.72,0.9963,-2.7154,8.8939,-0.1236,-0.3386,-0.1206
36.74,0.8885,-2.5473,8.6692,-0.2216,-0.4771,-0.1626
36.76,0.4595,-2.3063,9.0445,-0.2339,-0.315,-0.1593
36.78,0.5501,-2.4368,10.0777,-0.2044,0.1603,-0.1299
36.8,0.1894,-2.5307,10.285,-0.1241,0.5744,-0.0426
36.82,0.7607,-2.3287,10.8082,0.0548,0.6557,0.0131
36.84,1.6959,-2.3496,10.087,0.1994,0.2956,0.1062
36.86,1.6754,-2.1811,9.4947,0.2614,-0.1804,0.1568
36.88,1.4336,-2.6284,9.0977,0.2664,-0.4496,0.1749
36.9,1.0428,-2.6992,8.6743,0.1393,-0.4329,0.1299
36.92,1.3368,-2.3761,9.2279,0.0345,-0.1706,0.083
36.94,1.1149,-2.6696,9.1733,0.0017,0.0748,0.0462
36.96,0.5084,-2.9607,8.7981,-0.0414,0.1998,0.0051
36.98,0.9339,-2.45,9.3244,-0.075,0.1459,-0.0215
37.0,1.0601,-2.5245,9.5598,-0.0343,0.0388,-0.0228
37.02,1.1504,-2.2693,9.7761,-0.0277,-0.0302,-0.0252
37.04,0.6549,-2.591,9.7683,-0.0055,-0.0224,-0.0232
37.06,0.9866,-2.637,9.1914,-0.0555,-0.0319,-0.0039
37.08,0.7914,-2.6194,9.1201,-0.0077,0.0098,0.0238
37.1,1.291,-2.5759,9.8235,-0.0009,0.0099,0.0048
37.12,0.4399,-2.9309,9.1525,0.0264,-0.0127,-0.0194
37.14,0.8679,-2.9917,9.0514,-0.038,-0.0248,-0.0024
37.16,1.3749,-2.4487,9.9105,0.0315,-0.0225,-0.0201
37.18,1.3833,-2.2912,9.8069,0.0218,0.0155,0.0043
37.2,0.984,-2.799,9.078,0.0417,0.0594,-0.0243
37.22,0.9696,-2.6672,9.0158,0.0873,0.154,-0.0083
37.24,1.1344,-2.2899,8.9223,0.0644,0.1542,0.0247
37.26,0.8797,-2.3438,9.1368,0.0326,0.0229,0.0415
37.28,0.9476,-2.422,9.0477,-0.0539,-0.238,0.109
37.3,0.9766,-2.1724,8.8289,-0.183,-0.4642,0.134
37.32,0.6104,-2.6252,8.9886,-0.2257,-0.3594,0.1415
37.34,0.544,-2.6389,9.702,-0.1823,0.0181,0.1282
37.36,0.672,-2.582,10.5097,-0.1406,0.4506,0.0803
37.38,1.0301,-2.5873,10.7277,-0.0112,0.6161,-0.0009
37.4,1.5738,-2.5937,10.3236,0.1595,0.3835,-0.0789
37.42,1.7332,-2.2279,9.261,0.2358,-0.0605,-0.1338
37.44,1.5591,-2.6095,8.8028,0.2487,-0.3875,-0.1622
37.46,1.1677,-2.4421,8.7596,0.1644,-0.441,-0.1359
37.48,0.9759,-1.9249,8.8177,0.1069,-0.2232,-0.0924
37.5,1.083,-2.3732,9.0071,0.0122,0.0415,-0.0259
37.52,1.1654,-2.3505,9.0732,-0.0457,0.1548,-0.0179
37.54,1.2071,-1.9168,9.352,-0.0453,0.1308,0.0187
37.56,1.3851,-2.0452,9.1936,-0.0627,0.0603,0.0108
37.58,1.1332,-2.2687,9.3931,-0.0067,-0.0227,0.0167
37.6,1.012,-1.9631,9.7214,-0.0047,-0.0104,0.0087
37.62,1.2723,-2.3601,9.4991,0.0201,-0.0153,0.0047
37.64,0.8347,-2.5396,9.2753,-0.0181,-0.0266,-0.0036
37.66,0.9029,-2.3166,9.2851,-0.0142,0.0241,0.0189
37.68,1.0703,-1.9355,9.3447,-0.0188,-0.001,0.0088
37.7,1.2143,-2.2658,9.4148,0.0371,-0.0275,0.0201
37.72,1.2243,-2.0933,9.2072,0.026,-0.0252,0.0197
37.74,1.2283,-2.2608,9.2495,0.0447,0.0336,0.0371
37.76,1.3505,-2.044,9.1218,0.0514,0.1381,0.0008
37.78,1.2549,-2.3332,9.0829,0.0792,0.1908,0.0188
37.8,0.804,-2.5819,9.0336,0.061,0.1147,-0.0352
37.82,1.0304,-2.1591,9.0894,-0.0421,-0.1129,-0.0696
37.84,1.0203,-2.2617,8.8455,-0.1384,-0.3657,-0.1309
37.86,0.9174,-2.4395,8.8568,-0.2231,-0.4774,-0.1504
37.88,0.7383,-2.094,8.946,-0.2531,-0.1832,-0.143
37.9,0.5085,-2.0272,9.8795,-0.1924,0.2146,-0.1296
37.92,0.9247,-2.0213,11.3415,-0.0579,0.6087,-0.0393
37.94,1.2581,-1.9239,10.6367,0.1095,0.5794,0.0258
37.96,1.5533,-2.036,9.8757,0.2433,0.2156,0.0817
37.98,1.5892,-2.0158,9.1727,0.2467,-0.2518,0.1582
38.0,1.4386,-2.1347,8.8337,0.2604,-0.4697,0.1426
38.02,1.1503,-2.4121,8.8989,0.13,-0.4006,0.1004
38.04,1.0502,-2.4375,8.894,0.0568,-0.117,0.0696
38.06,1.2075,-2.465,8.9169,-0.0218,0.1158,0.0174
38.08,1.1636,-2.511,8.9721,-0.0505,0.1962,-0.0125
38.1,0.8742,-2.4368,9.1417,-0.0582,0.0896,-0.0027
38.12,1.0462,-2.4456,9.3579,-0.0103,0.0316,-0.0167
38.14,0.7429,-2.5821,9.3842,0.0014,-0.0369,-0.0187
38.16,1.0054,-2.4388,9.3506,-0.0037,-0.0272,0.0098
38.18,1.1859,-2.3422,9.3566,-0.0139,-0.0234,-0.0184
38.2,1.0042,-2.6232,9.3404,0.0186,-0.0097,0.0006
38.22,0.7481,-2.6846,9.3532,0.0068,-0.0239,-0.0201
38.24,1.1355,-2.3948,9.325,0.0317,-0.0166,-0.0189
38.26,1.1756,-2.1402,9.3908,0.0008,0.0252,-0.008
38.28,1.0967,-2.4949,9.2613,0.0787,0.0836,-0.0226
38.3,1.095,-2.4717,9.1318,0.0651,0.15,-0.0046
38.32,0.9498,-2.5926,9.0385,0.098,0.1662,0.0245
38.34,0.9707,-2.753,9.1226,0.0029,0.0125,0.0473
38.36,1.1247,-2.4737,8.882,-0.064,-0.2345,0.0827
38.38,0.9782,-2.673,8.7652,-0.1951,-0.458,0.1267
38.4,0.7546,-2.5336,9.0157,-0.2234,-0.3874,0.1438
38.42,0.5647,-2.8463,9.6774,-0.2318,-0.0411,0.1353
38.44,0.4707,-2.7557,10.323,-0.142,0.4268,0.0866
38.46,0.7548,-3.1433,10.8125,0.019,0.6251,-0.017
38.48,1.6361,-2.7339,10.6986,0.1427,0.4353,-0.0713
38.5,1.6005,-2.6264,9.6395,0.2373,-0.0025,-0.1348
38.52,1.3465,-2.5903,9.0015,0.2356,-0.3574,-0.1415
38.54,1.2726,-2.6034,8.8942,0.1796,-0.4505,-0.129
38.56,0.9037,-2.314,9.0574,0.1114,-0.2307,-0.1073
38.58,0.8851,-2.5314,9.0828,0.0309,0.0152,-0.0596
38.6,1.0432,-2.4535,9.1333,-0.0516,0.1925,0.0008
38.62,0.648,-2.5593,9.1631,-0.0465,0.1616,-0.0088
38.64,0.9746,-2.5639,9.322,-0.0606,0.0862,0.0317
38.66,1.0599,-2.4184,9.0553,0.0192,-0.0214,0.0087
38.68,0.9793,-2.6221,9.4907,-0.0185,-0.0576,0.0169
38.7,0.9856,-2.9213,9.2736,-0.0169,-0.0074,0.0116
38.72,0.9305,-2.8,9.3164,0.0256,-0.0123,0.0127
38.74,1.0988,-2.3847,9.4435,0.0176,-0.0095,0.0226
38.76,1.2208,-2.5569,9.4067,0.0097,-0.0447,-0.0043
38.78,0.8926,-2.6157,9.3437,0.0236,-0.0106,0.0199
38.8,1.2046,-2.5082,9.6122,0.0574,0.0236,0.0074
38.82,1.3302,-2.4177,9.2294,0.0786,0.1181,0.0149
38.84,1.0793,-2.6233,9.0794,0.0464,0.1903,0.0103
38.86,0.9452,-2.4702,9.0382,0.0588,0.1464,-0.0044
38.88,1.0635,-2.3816,8.9695,-0.0162,-0.0615,-0.073
38.9,1.0675,-2.5645,8.889,-0.1182,-0.3629,-0.1052
38.92,0.7741,-2.4902,8.9773,-0.1883,-0.4787,-0.1439
38.94,0.7815,-2.0682,8.9442,-0.2572,-0.2666,-0.1724
38.96,0.2734,-2.0054,9.7907,-0.1867,0.169,-0.1206
38.98,1.2937,-2.0035,11.2732,-0.0762,0.5786,-0.04
39.0,1.155,-2.0157,11.3527,0.0839,0.6247,0.0319
39.02,1.4263,-1.8861,9.879,0.2306,0.2942,0.1149
39.04,1.8696,-2.0732,9.1702,0.2754,-0.1827,0.1456
39.06,1.4208,-2.1637,8.6744,0.2373,-0.4622,0.1433
39.08,0.9936,-2.2595,8.8841,0.1687,-0.4274,0.1257
39.1,1.0832,-2.5963,8.9337,0.0414,-0.1408,0.0688
39.12,1.1097,-2.3938,8.9031,-0.0275,0.0953,0.0261
39.14,0.8538,-2.4417,8.9248,-0.0507,0.197,-0.0105
39.16,0.801,-2.2855,9.1546,-0.0529,0.1381,-0.0197
39.18,0.9586,-2.2313,9.3666,-0.0329,0.0371,-0.0256
39.2,1.2834,-2.0524,9.4778,-0.0223,-0.0103,-0.0207
39.22,1.1962,-2.2098,9.1663,-0.01,-0.0608,-0.0038
39.24,0.9948,-2.1757,9.3804,0.0061,-0.0248,-0.0053
39.26,1.19,-2.298,9.3673,0.0323,-0.0199,-0.0115
39.28,1.2325,-2.0984,9.5082,0.0083,-0.0147,-0.0052
39.3,0.9216,-2.2791,9.7755,0.0164,-0.0277,0.0099
39.32,1.2126,-2.3595,9.3513,0.0339,-0.0547,-0.0185
39.34,1.0664,-2.2495,9.2548,0.0293,0.0119,-0.0375
39.36,1.1509,-2.1291,9.1297,0.0669,0.1285,-0.0139
39.38,1.151,-2.347,9.2995,0.0707,0.1566,-0.0039
39.4,1.0232,-2.1857,9.0095,0.0304,0.0926,0.0246
39.42,1.0624,-2.2055,8.7876,-0.0191,-0.0955,0.0712
39.44,1.1811,-2.3395,9.0924,-0.1084,-0.3707,0.1119
39.46,0.5125,-2.3968,8.8772,-0.1915,-0.4419,0.1404
39.48,0.5452,-2.3377,9.0881,-0.2238,-0.1809,0.1262
39.5,0.4715,-2.5043,10.0482,-0.1626,0.2269,0.1019
39.52,1.12,-2.5947,10.6098,-0.0907,0.5505,0.0158
39.54,1.4799,-2.7055,11.0418,0.0785,0.5447,-0.0524
39.56,1.5772,-2.6269,10.0578,0.2221,0.2327,-0.093
39.58,1.6133,-2.3021,9.0371,0.2308,-0.2328,-0.1293
39.6,1.4794,-2.614,8.9968,0.2336,-0.436,-0.1546
39.62,1.1478,-2.2183,8.6719,0.1365,-0.3501,-0.1098
39.64,1.009,-2.3826,9.0301,0.0279,-0.0816,-0.0689
39.66,1.1501,-2.2991,8.9784,-0.0276,0.1233,-0.0415
39.68,0.8921,-2.5262,9.1946,-0.0543,0.1585,-0.0138
39.7,0.8816,-2.3624,9.0716,-0.0532,0.1166,0.0177
39.72,0.8241,-2.3837,9.3653,-0.0037,0.0145,0.0122
39.74,0.9854,-2.291,9.5782,-0.0267,-0.0296,0.0091
39.76,0.4455,-2.909,9.1204,0.0087,-0.0335,-0.0013
39.78,0.6848,-2.6725,9.2337,0.0264,-0.0693,0.0113
39.8,0.9613,-2.4878,9.4973,0.0477,-0.0193,0.0008
39.82,0.8654,-2.7717,9.1983,0.0275,-0.0453,0.0363
39.84,1.225,-2.443,9.4847,0.0511,0.0781,0.0146
39.86,1.1382,-2.426,9.1516,0.0982,0.177,0.0311
39.88,1.1334,-2.3439,9.1332,0.0689,0.2173,0.0044
39.9,1.0335,-2.8054,8.5856,0.026,0.0169,-0.057
39.92,1.0303,-2.6613,9.1409,-0.0645,-0.2719,-0.1193
39.94,0.7967,-2.7288,8.6755,-0.2084,-0.5302,-0.146
39.96,0.5716,-2.5583,8.8605,-0.2539,-0.4142,-0.1667
39.98,0.6285,-2.3051,9.5964,-0.2462,-0.0287,-0.1588
40.0,0.8382,-2.3557,10.832,-0.1424,0.4637,-0.0758
40.02,1.2743,-2.1538,11.5529,-0.009,0.7026,-0.0165
40.04,1.7386,-2.2799,10.8886,0.1793,0.5018,0.091
40.06,1.9758,-2.4023,9.7172,0.2441,-0.0042,0.147
40.08,1.3541,-2.5706,8.5221,0.2749,-0.4403,0.1851
40.1,1.0325,-2.481,8.7367,0.2261,-0.5298,0.14
40.12,1.3076,-2.3484,9.1427,0.1007,-0.2515,0.1223
40.14,1.2079,-2.7244,8.8229,0.0163,0.0278,0.056
40.16,1.0769,-2.6363,9.0764,-0.0382,0.2285,0.0157
40.18,1.0127,-2.6704,9.1633,-0.1085,0.2031,-0.0193
40.2,0.6341,-2.6177,8.8859,-0.0611,0.0798,-0.0256
40.22,0.6411,-2.7792,9.1011,-0.0296,0.0058,-0.0403
40.24,1.1552,-2.2803,9.767,-0.0007,-0.05,0.0053
40.26,1.2488,-2.4274,9.2601,0.0265,-0.0199,0.0034
40.28,1.0212,-2.5061,9.3642,0.0102,0.0085,-0.0033
40.3,1.3023,-2.5674,9.4903,0.0125,-0.0101,0.0063
40.32,0.9872,-2.5199,9.4671,0.0055,-0.0201,-0.0057
40.34,1.1963,-2.5424,9.4636,0.0318,-0.03,-0.0181
40.36,0.9913,-2.2956,9.1862,0.0621,-0.0076,0.0031
40.38,1.3136,-2.3727,8.9925,0.0692,0.0684,-0.0309
40.4,1.1748,-2.1811,9.1197,0.0461,0.168,-0.0107
40.42,1.1942,-2.1435,9.1222,0.0627,0.1596,0.0151
40.44,1.0252,-2.1132,9.0422,0.0175,-0.0053,0.056
40.46,1.116,-2.2443,8.8097,-0.0865,-0.2542,0.0965
40.48,0.9091,-2.3224,8.9812,-0.1817,-0.4407,0.1366
40.5,0.9556,-2.1908,9.2029,-0.2079,-0.3586,0.1498
40.52,0.611,-2.5314,9.421,-0.2331,0.0654,0.1223
40.54,0.9647,-2.5281,10.6296,-0.1165,0.4783,0.0796
40.56,1.0882,-2.6318,11.3202,0.0522,0.6098,-0.0064
40.58,1.5783,-2.349,10.1019,0.1841,0.3587,-0.093
40.6,1.7126,-2.5727,9.4773,0.2391,-0.0605,-0.1455
40.62,1.4019,-2.4127,8.9812,0.2492,-0.3942,-0.1466
40.64,1.303,-2.1414,8.9108,0.1995,-0.4061,-0.1458
40.66,1.3946,-2.0576,9.0754,0.0778,-0.2087,-0.1025
40.68,1.0802,-2.0007,9.0535,0.0024,0.0591,-0.0755
40.7,1.2188,-2.2857,8.9961,-0.0256,0.2016,-0.0126
40.72,1.0659,-1.8659,9.0579,-0.0636,0.1478,0.022
40.74,1.2244,-2.1509,9.2102,-0.0327,0.0676,0.0175
40.76,1.1114,-2.2184,9.42,-0.037,-0.0221,0.005
40.78,0.9074,-2.1288,9.3388,0.0252,-0.0254,0.0123
40.8,1.298,-2.3917,9.3718,-0.0236,-0.0029,0.0081
40.82,1.165,-2.2906,9.2237,0.0021,-0.0127,0.0069
40.84,1.1121,-2.3032,9.3696,-0.0213,0.0013,0.0121
40.86,1.2154,-2.297,9.2072,0.0168,-0.0251,0.0126
40.88,1.1002,-2.2265,9.365,0.0157,-0.0381,0.0198
40.9,1.1852,-2.5039,9.3243,0.0757,0.0321,0.0092
40.92,1.2069,-2.3198,9.2071,0.0623,0.0959,-0.0016
40.94,1.3675,-2.4381,9.21,0.0438,0.1538,0.005
40.96,1.1399,-2.4461,9.0787,0.0429,0.092,-0.0219
40.98,0.937,-2.4546,9.0373,-0.012,-0.0951,-0.0647
41.0,1.0609,-2.6058,9.0265,-0.0969,-0.3459,-0.0793
41.02,0.7436,-2.2208,9.0019,-0.1553,-0.3747,-0.1211
41.04,0.4115,-2.2471,9.1951,-0.1968,-0.1628,-0.1192
41.06,0.3678,-2.2201,10.1772,-0.179,0.2042,-0.0943
41.08,0.6806,-2.0454,10.4954,-0.0351,0.5274,-0.0305
41.1,1.2076,-2.3759,10.3433,0.1066,0.5119,0.0383
41.12,1.6445,-2.2487,10.1808,0.1952,0.1558,0.0997
41.14,1.4613,-2.0028,9.2403,0.2324,-0.2291,0.1108
41.16,1.4007,-2.4377,8.8649,0.1942,-0.4065,0.1183
41.18,0.9362,-2.4603,8.9078,0.1336,-0.2993,0.0871
41.2,1.038,-2.4889,8.9351,0.0243,-0.0577,0.0768
41.22,0.9673,-2.6004,9.1892,-0.0331,0.0964,0.0336
41.24,0.9306,-2.5073,9.2963,-0.0452,0.1517,0.0177
41.26,1.0579,-2.5889,9.3708,-0.0731,0.0859,0.002
41.28,0.8637,-2.7705,9.3492,-0.0635,0.016,-0.0371
41.3,0.8002,-2.5929,9.5072,-0.0061,-0.035,0.0021
41.32,1.0797,-2.5341,9.4512,0.0007,-0.038,-0.0071
41.34,0.9705,-2.7419,9.3151,-0.0012,-0.0365,-0.0084
41.36,1.0461,-2.6123,9.5227,0.019,-0.0397,-0.0278
41.38,1.0996,-2.6666,9.3103,0.02,-0.0327,-0.0038
41.4,1.0315,-2.6559,9.3656,0.0519,-0.04,-0.0339
41.42,1.0611,-2.7081,9.0517,0.0699,0.0338,-0.0198
41.44,1.0225,-2.5708,9.0579,0.0676,0.1309,-0.0333
41.46,1.016,-2.4957,9.265,0.0373,0.1905,-0.0199
41.48,1.0356,-2.4338,9.1099,0.0034,0.0821,0.0321
41.5,1.0694,-2.3641,9.0323,-0.0559,-0.1814,0.086
41.52,0.7608,-2.4648,8.8674,-0.1586,-0.4298,0.137
41.54,0.8681,-2.6204,8.7975,-0.2378,-0.4317,0.1651
41.56,0.5642,-2.9058,9.4105,-0.2033,-0.1134,0.1402
41.58,0.3172,-2.7917,10.0862,-0.1941,0.3426,0.095
41.6,0.6574,-2.6246,10.9355,-0.0276,0.6333,0.0119
41.62,1.3854,-2.6303,10.9444,0.112,0.5256,-0.0697
41.64,1.4161,-2.6022,9.8456,0.2241,0.1125,-0.1301
41.66,1.5682,-2.5796,9.0866,0.2486,-0.3189,-0.1453
41.68,1.2765,-2.5091,8.9313,0.1904,-0.472,-0.1456
41.7,1.1044,-2.1493,8.8269,0.1006,-0.3048,-0.1125
41.72,1.2433,-2.2992,8.9484,0.0326,0.0065,-0.0628
41.74,1.1649,-2.6097,9.0782,-0.0204,0.1787,-0.0375
41.76,0.8468,-2.2437,9.2342,-0.035,0.1712,0.0157
41.78,1.1383,-2.2633,9.3951,-0.0586,0.107,0.0179
41.8,1.141,-2.5419,9.5665,-0.0358,0.0003,-0.0
41.82,1.0115,-2.2053,9.6054,-0.0132,-0.0338,0.0139
41.84,0.9926,-2.2796,9.452,-0.0168,-0.0459,0.0225
41.86,1.1475,-2.5301,9.3993,0.0445,-0.0429,0.0176
41.88,1.08,-2.3784,9.6437,0.0347,-0.02,0.0364
41.9,1.1343,-2.3056,9.4729,0.0222,0.0216,0.0193
41.92,1.2985,-2.5851,9.1761,0.0811,0.109,0.0455
41.94,1.3514,-2.6729,9.0438,0.0904,0.1703,0.0093
41.96,1.137,-2.3522,9.1573,0.05,0.1281,-0.0256
41.98,0.9023,-2.3102,9.0449,-0.0212,-0.0612,-0.0697
42.0,1.1235,-2.4572,8.9068,-0.1123,-0.3359,-0.0961
42.02,0.8217,-2.1586,8.9385,-0.2212,-0.4527,-0.1424
42.04,0.6566,-2.1449,9.1547,-0.2246,-0.2625,-0.1326
42.06,0.9942,-1.9899,10.3718,-0.2005,0.184,-0.1188
42.08,0.9224,-1.8187,10.8526,-0.076,0.5383,-0.0593
42.1,1.2518,-1.9667,10.6954,0.1012,0.6059,0.0282
42.12,1.744,-2.1089,10.234,0.1864,0.2687,0.1113
42.14,1.6109,-2.1354,9.0276,0.2546,-0.1994,0.1471
42.16,1.5809,-2.3946,8.9147,0.2011,-0.4357,0.157
42.18,1.3363,-2.2627,8.7896,0.1469,-0.3693,0.1166
42.2,1.1584,-2.4527,8.7801,0.0354,-0.1148,0.0874
42.22,1.2541,-2.2648,9.0193,0.0023,0.1207,0.0364
42.24,1.2618,-2.3493,9.2225,-0.0333,0.1938,0.0026
42.26,1.0318,-2.3013,9.318,-0.0292,0.1391,-0.0501
42.28,0.9218,-2.0574,9.3092,-0.0315,0.021,-0.0212
42.3,1.2344,-2.4679,9.2996,-0.0168,-0.0611,-0.0149
42.32,1.0382,-2.3367,9.4897,-0.0046,-0.0364,-0.0005
42.34,1.119,-2.3543,9.1532,-0.0231,-0.0018,0.0014
42.36,1.3921,-2.4383,9.2405,-0.0186,0.0022,-0.0074
42.38,0.9409,-2.0712,9.3744,0.017,-0.001,-0.0077
42.4,1.1768,-2.3007,9.2805,0.0255,-0.0415,0.001
42.42,0.9327,-2.301,9.5105,-0.0121,-0.0495,-0.0362
42.44,1.1411,-2.3583,9.4182,0.0535,-0.0074,-0.0435
42.46,1.416,-2.5655,9.2469,0.0167,0.0797,-0.0054
42.48,1.0629,-2.3261,9.1631,0.0811,0.1701,-0.007
42.5,0.9094,-2.4221,8.7872,0.0768,0.1911,0.0155
42.52,1.1266,-2.2194,8.9801,0.0229,-0.0145,0.0406
42.54,1.0772,-2.1978,9.025,-0.0943,-0.2907,0.0901
42.56,0.9376,-2.534,8.982,-0.151,-0.464,0.1323
42.58,0.504,-2.4849,8.9407,-0.2233,-0.3522,0.1533
42.6,0.5045,-2.6776,9.3686,-0.1884,0.0308,0.1295
42.62,0.9417,-2.6297,10.9409,-0.1394,0.4618,0.0736
42.64,0.9748,-2.7297,11.0282,-0.0064,0.629,-0.0072
42.66,1.4875,-2.7142,9.9789,0.1724,0.4108,-0.1137
42.68,1.4962,-2.82,9.3286,0.2408,-0.0418,-0.1428
42.7,1.4907,-2.5783,8.9809,0.2649,-0.3903,-0.1719
42.72,1.3332,-2.5394,9.0624,0.1887,-0.4378,-0.1369
42.74,1.2084,-2.528,8.8878,0.0826,-0.2265,-0.0754
42.76,0.9686,-2.4529,8.9709,0.0237,0.058,-0.0392
42.78,0.9832,-2.4865,9.2146,-0.0287,0.1864,-0.0005
42.8,0.9859,-2.4846,9.27,-0.0455,0.1649,0.01
42.82,0.9597,-2.6857,9.3699,-0.0077,0.0661,0.0244
42.84,0.8776,-2.4978,9.4232,-0.0271,-0.0088,0.0091
42.86,0.8319,-2.7039,9.5362,-0.0321,-0.0567,-0.0012
42.88,1.1224,-2.7541,9.3552,0.0192,-0.0189,0.0079
42.9,1.1473,-2.5391,9.4113,0.0323,-0.0225,0.0125
42.92,1.1233,-2.7275,9.2833,0.0345,0.0053,-0.004
42.94,1.0257,-2.3925,9.3591,0.0018,0.0044,-0.0077
42.96,1.0399,-2.3887,9.4298,0.0029,-0.0392,0.0164
42.98,0.9615,-2.6959,9.3876,0.0386,-0.037,0.015
43.0,1.2565,-2.5167,9.2543,0.0165,0.0023,0.0209
43.02,1.2124,-2.7497,9.226,0.0814,0.1075,0.0413
43.04,1.0311,-2.4391,9.0192,0.0832,0.1687,0.0084
43.06,1.1196,-2.78,9.0624,0.038,0.1437,-0.0395
43.08,0.9634,-2.5496,8.992,-0.0106,-0.0432,-0.0808
43.1,0.8079,-2.7235,9.0056,-0.0884,-0.307,-0.1203
43.12,0.791,-2.6452,8.8333,-0.1864,-0.4455,-0.1575
43.14,0.3927,-2.4864,9.064,-0.2134,-0.3134,-0.1322
43.16,0.527,-2.393,9.5613,-0.1865,0.1429,-0.1277
43.18,0.8774,-2.3038,10.8913,-0.1089,0.5094,-0.047
43.2,1.1149,-2.0058,11.344,0.0734,0.5922,0.0146
43.22,1.4156,-2.1357,9.9362,0.1976,0.3022,0.1044
43.24,1.7306,-2.1822,9.3297,0.2579,-0.121,0.1503
43.26,1.3797,-2.2049,9.0316,0.228,-0.4053,0.1312
43.28,1.2085,-2.2285,8.8646,0.151,-0.4103,0.1461
43.3,0.9871,-2.5619,8.8076,0.0718,-0.1633,0.0763
43.32,0.9718,-2.6048,9.322,-0.0196,0.0849,0.0294
43.34,1.0162,-2.393,8.9667,-0.0731,0.1661,0.0108
43.36,1.2341,-2.3347,9.1372,-0.0324,0.1292,-0.0288
43.38,1.0691,-2.3578,9.2804,-0.0243,0.0463,-0.0368
43.4,1.0761,-2.3347,9.3337,-0.0187,-0.0401,-0.0222
43.42,1.1428,-2.4303,9.3171,0.0128,-0.0619,0.0003
43.44,1.1309,-1.8966,9.7158,0.0066,-0.045,-0.0154
43.46,1.2216,-2.1367,9.4172,0.0063,-0.0012,0.0002
43.48,1.1974,-2.0384,9.4318,0.0192,-0.0068,-0.0103
43.5,1.1358,-2.4196,9.4815,-0.0079,0.0061,0.0043
43.52,1.2015,-2.199,9.3592,0.0292,-0.0081,0.003
43.54,1.1692,-2.1454,9.2505,0.0073,-0.0086,0.0066
43.56,1.424,-2.2242,9.2234,0.0304,-0.0208,-0.0049
43.58,1.1862,-2.069,9.2399,-0.0005,-0.0014,-0.0131
43.6,1.2002,-2.1707,9.2448,0.0227,0.0147,0.0018
43.62,0.9826,-2.2067,9.4251,0.0292,0.0,-0.0048
43.64,1.0326,-2.1989,9.2033,0.0303,-0.0069,0.0137
43.66,1.2043,-2.179,9.3994,-0.0069,0.028,-0.0107
43.68,1.0366,-2.1045,9.1916,0.0155,0.0018,-0.0029
43.7,1.0564,-2.5756,9.4498,0.0109,0.0104,-0.0052
43.72,0.8851,-2.4052,9.2211,0.0215,-0.011,0.0062
43.74,1.0942,-2.5165,9.3723,0.0076,0.0154,-0.0096
43.76,0.9712,-2.5489,9.3192,0.0194,-0.0033,-0.0005
43.78,1.1361,-2.4693,9.5077,0.0055,-0.012,-0.0161
43.8,1.0751,-2.4331,9.324,-0.0024,-0.0131,-0.0049
43.82,1.0746,-2.3487,9.3934,0.0153,0.0128,0.0154
43.84,1.225,-2.6979,9.3502,0.0165,-0.0005,-0.0165
43.86,1.0313,-2.2902,9.5777,-0.0056,0.0036,-0.0082
43.88,1.1493,-2.3551,9.2645,-0.0067,-0.0076,0.0042
43.9,1.2436,-2.344,9.3247,0.0326,-0.0007,0.0156
43.92,1.2009,-2.5421,9.2225,-0.0101,-0.0143,0.003
43.94,1.1949,-2.4806,9.2851,0.028,0.0133,-0.002
43.96,1.1441,-2.2281,9.2822,0.0224,0.0002,0.0118
43.98,0.8322,-2.404,9.3451,0.0292,0.0018,-0.0093
44.0,1.0314,-2.4528,9.3996,0.0032,0.0141,0.0052
44.02,1.1596,-2.1507,9.2289,0.0113,0.0059,-0.0048
44.04,1.1594,-2.4878,9.3993,0.0017,-0.0013,-0.0002
44.06,1.0087,-2.3483,9.3229,0.0043,-0.0009,-0.0006
44.08,1.0363,-2.3071,9.2432,-0.0034,0.0009,0.0036
44.1,1.0713,-2.3057,9.3983,0.0148,0.0007,-0.0015
44.12,1.0696,-2.3688,9.2349,0.0048,0.0064,-0.003
44.14,1.0457,-2.2873,9.2328,0.0142,-0.0032,-0.002
44.16,1.0545,-2.3984,9.3956,0.0013,0.0017,-0.0054
44.18,1.1732,-2.3321,9.2906,0.0114,-0.0034,0.0025
44.2,1.0144,-2.3875,9.29,-0.0062,0.007,-0.0012
44.22,0.9897,-2.3575,9.3208,0.0003,0.0022,0.0041
44.24,1.0115,-2.3739,9.3426,0.0031,0.0079,-0.0003
44.26,0.9967,-2.4336,9.3584,0.0055,0.0001,0.0026
44.28,1.042,-2.3991,9.4026,0.0103,-0.005,0.0066
44.3,1.0411,-2.3523,9.4033,0.0036,-0.0009,-0.0019
44.32,1.0117,-2.3374,9.5091,0.0004,0.0019,0.0032
44.34,1.0036,-2.4156,9.3403,-0.0055,-0.0012,-0.0035
44.36,1.0297,-2.4501,9.4054,0.0015,-0.0014,0.0001
44.38,0.9979,-2.2711,9.3824,0.0024,0.0015,-0.0014
44.4,1.0527,-2.3006,9.34,0.0035,0.0003,-0.0
44.42,1.0005,-2.4148,9.3347,-0.0002,0.0001,0.0005
44.44,0.959,-2.4127,9.2949,0.0022,0.0005,-0.0005
44.46,1.0266,-2.3625,9.3385,-0.0001,-0.0004,-0.0002
44.48,0.9674,-2.4009,9.36,0.0001,-0.0003,-0.0002
44.5,1.0216,-2.3395,9.4433,-0.0,0.0,-0.0
44.52,1.0176,-2.3024,9.3175,0.0,0.0,-0.0
44.54,1.0092,-2.3039,9.3533,0.0,-0.0,0.0
44.56,1.0192,-2.3361,9.3488,-0.0,-0.0,0.0
44.58,0.9621,-2.3282,9.2838,-0.0,-0.0,-0.0
44.6,0.9615,-2.4027,9.305,0.0,-0.0,-0.0
44.62,0.9664,-2.353,9.3391,-0.0,0.0,-0.0
44.64,0.9251,-2.3933,9.379,0.0,-0.0,-0.0
44.66,0.9568,-2.4096,9.3559,0.0,-0.0,0.0
44.68,1.0045,-2.3703,9.314,0.0,0.0,0.0
44.7,0.9747,-2.3424,9.3664,0.0,0.0,-0.0
44.72,0.9988,-2.3235,9.3864,0.0,0.0,0.0
44.74,0.9653,-2.3349,9.3874,-0.0,-0.0,0.0
44.76,0.9783,-2.398,9.3433,-0.0,0.0,-0.0
44.78,1.0147,-2.2724,9.2816,0.0,0.0,0.0
44.8,1.0546,-2.3005,9.325,0.0,-0.0,0.0
44.82,0.9859,-2.3671,9.3288,0.0,0.0,-0.0
44.84,1.0017,-2.3833,9.3885,0.0,-0.0,0.0
44.86,0.9993,-2.3516,9.3526,-0.0,-0.0,0.0
44.88,0.9714,-2.379,9.3933,0.0,0.0,0.0
44.9,1.0139,-2.4397,9.3471,0.0,0.0,-0.0
44.92,0.9407,-2.3423,9.3183,-0.0,0.0,0.0
44.94,1.0642,-2.3052,9.3691,0.0,0.0,-0.0
44.96,1.0369,-2.307,9.4129,-0.0,-0.0,-0.0
44.98,0.9979,-2.3091,9.358,0.0,0.0,-0.0
