time_s,acc_x,acc_y,acc_z,gyro_x,gyro_y,gyro_z
0.0,0.2173,-0.216,9.6351,-0.0197,-0.0148,-0.0099
0.02,0.3962,-0.1164,9.8653,0.0075,0.0056,0.0037
0.04,0.182,-0.2011,9.6235,-0.0211,-0.0158,-0.0105
0.06,0.3077,-0.1909,9.7524,-0.0066,-0.005,-0.0033
0.08,0.288,-0.1248,9.8889,0.0115,0.0086,0.0057
0.1,0.309,-0.118,9.8703,0.0103,0.0078,0.0052
0.12,0.1874,-0.2585,9.6714,-0.0119,-0.009,-0.006
0.14,0.5073,0.1184,10.0615,0.0378,0.0284,0.0189
0.16,0.4172,0.0166,9.9716,0.0229,0.0172,0.0115
0.18,0.2273,-0.2036,9.7331,-0.0086,-0.0064,-0.0043
0.2,0.1507,-0.2648,9.6415,-0.0315,-0.0237,-0.0158
0.22,0.3439,-0.1339,9.8081,0.0071,0.0053,0.0036
0.24,0.4485,-0.1129,9.84,0.0095,0.0071,0.0047
0.26,0.338,-0.1336,9.8094,0.0026,0.0019,0.0013
0.28,0.3089,-0.142,9.8101,0.0056,0.0042,0.0028
0.3,0.1466,-0.3258,9.6757,-0.0254,-0.019,-0.0127
0.32,0.4714,0.0163,9.9665,0.0296,0.0222,0.0148
0.34,0.4298,-0.074,9.8923,0.0179,0.0134,0.0089
0.36,0.2221,-0.2058,9.5172,-0.0253,-0.019,-0.0126
0.38,0.2537,-0.1584,9.7286,-0.0038,-0.0029,-0.0019
0.4,0.3215,-0.0307,9.9627,0.0177,0.0133,0.0089
0.42,0.2476,-0.2095,9.8245,-0.0003,-0.0002,-0.0001
0.44,0.4199,-0.1123,9.9661,0.0142,0.0107,0.0071
0.46,0.3052,-0.2739,9.648,-0.0199,-0.0149,-0.0099
0.48,0.4104,-0.1266,9.9225,0.0161,0.012,0.008
0.5,0.2916,-0.0227,9.9559,0.0113,0.0085,0.0056
0.52,0.1375,-0.2635,9.5443,-0.0293,-0.022,-0.0147
0.54,0.0783,-0.4265,9.4422,-0.0402,-0.0302,-0.0201
0.56,0.3118,-0.1282,10.1319,0.0183,0.0137,0.0091
0.58,0.0351,-0.3197,9.5176,-0.038,-0.0285,-0.019
0.6,0.3536,-0.055,9.8982,0.0152,0.0114,0.0076
0.62,0.3952,-0.0748,9.8438,0.009,0.0068,0.0045
0.64,0.438,-0.1294,9.8819,0.0165,0.0124,0.0083
0.66,0.3775,-0.1672,9.7556,-0.0019,-0.0014,-0.0009
0.68,0.1408,-0.3118,9.5935,-0.0215,-0.0161,-0.0107
0.7,0.2094,-0.1479,9.7315,-0.0059,-0.0044,-0.0029
0.72,0.259,-0.1748,9.7227,-0.0089,-0.0067,-0.0044
0.74,0.3346,-0.0578,9.9634,0.0182,0.0136,0.0091
0.76,0.3357,-0.1286,9.8295,0.0011,0.0008,0.0006
0.78,0.339,-0.077,9.8617,0.0121,0.0091,0.0061
0.8,0.1818,-0.286,9.6134,-0.023,-0.0172,-0.0115
0.82,0.4304,-0.0184,10.0132,0.0296,0.0222,0.0148
0.84,0.4812,0.0245,10.0173,0.0326,0.0244,0.0163
0.86,0.241,-0.2116,9.6722,-0.0106,-0.0079,-0.0053
0.88,0.093,-0.3047,9.4971,-0.0304,-0.0228,-0.0152
0.9,0.415,-0.0773,9.834,0.0215,0.0161,0.0108
0.92,0.2353,-0.1086,9.6922,-0.0109,-0.0082,-0.0054
0.94,0.3106,-0.0427,9.7835,0.0003,0.0003,0.0002
0.96,0.3938,-0.0097,9.9143,0.025,0.0188,0.0125
0.98,0.2476,-0.2232,9.7966,-0.0018,-0.0014,-0.0009
1.0,0.3691,-0.1396,9.6729,-0.0091,-0.0069,-0.0046
1.02,0.3104,-0.1414,9.6901,-0.0034,-0.0026,-0.0017
1.04,0.3888,-0.0763,9.8636,0.0156,0.0117,0.0078
1.06,0.1926,-0.2674,9.6738,-0.0244,-0.0183,-0.0122
1.08,0.3164,-0.0391,9.8797,0.0085,0.0064,0.0042
1.1,0.1392,-0.1621,9.6973,-0.0149,-0.0111,-0.0074
1.12,0.3542,-0.1302,9.8715,0.0148,0.0111,0.0074
1.14,0.351,-0.1525,9.9208,0.0156,0.0117,0.0078
1.16,0.2268,-0.2381,9.6278,-0.0169,-0.0127,-0.0084
1.18,0.3666,-0.0919,9.7965,0.008,0.006,0.004
1.2,0.362,-0.0289,9.9328,0.0173,0.013,0.0087
1.22,0.1522,-0.1233,9.5891,-0.0205,-0.0154,-0.0102
1.24,0.2943,0.0777,9.8728,0.0175,0.0131,0.0087
1.26,0.3643,-0.1361,9.903,0.0108,0.0081,0.0054
1.28,0.255,-0.1854,9.6354,-0.0176,-0.0132,-0.0088
1.3,0.2947,-0.1398,9.9001,0.0107,0.008,0.0054
1.32,0.3269,-0.1443,9.7108,-0.0034,-0.0026,-0.0017
1.34,0.2499,-0.0847,9.728,0.0064,0.0048,0.0032
1.36,0.6377,0.0575,10.0959,0.0553,0.0415,0.0276
1.38,0.388,-0.1063,9.8399,0.0042,0.0032,0.0021
1.4,0.3541,-0.1217,9.9352,0.0156,0.0117,0.0078
1.42,0.4089,-0.1311,9.9998,0.0199,0.0149,0.01
1.44,0.242,-0.1414,9.7283,-0.0038,-0.0028,-0.0019
1.46,0.2229,-0.167,9.6874,-0.0207,-0.0155,-0.0103
1.48,0.2625,-0.2414,9.5868,-0.0244,-0.0183,-0.0122
1.5,0.4377,0.0361,9.8363,0.0152,0.0114,0.0076
1.52,0.1757,-0.1108,9.6648,-0.0142,-0.0107,-0.0071
1.54,0.2412,-0.1357,9.7864,-0.0023,-0.0017,-0.0012
1.56,0.3669,-0.032,9.9093,0.0235,0.0176,0.0118
1.58,0.4039,0.0419,9.9423,0.0271,0.0204,0.0136
1.6,0.2927,-0.0815,9.7597,0.0011,0.0008,0.0005
1.62,0.3874,-0.1565,9.8062,0.0123,0.0092,0.0061
1.64,0.3361,-0.1344,9.8059,-0.0015,-0.0011,-0.0008
1.66,0.2607,-0.2433,9.74,-0.002,-0.0015,-0.001
1.68,0.2691,-0.2443,9.535,-0.0229,-0.0172,-0.0114
1.7,0.27,-0.1956,9.6626,-0.0092,-0.0069,-0.0046
1.72,0.4391,-0.0477,10.0115,0.0229,0.0172,0.0115
1.74,0.4438,-0.0186,9.9026,0.0157,0.0118,0.0079
1.76,0.3271,-0.16,9.7558,0.0033,0.0025,0.0016
1.78,0.3435,-0.182,9.7098,-0.011,-0.0085,-0.0059
1.8,0.3623,-0.17,9.8444,-0.0003,0.0017,-0.0012
1.82,0.1469,-0.1852,9.7184,-0.014,-0.0121,-0.0066
1.84,0.2296,-0.1998,9.8281,-0.0052,-0.0031,0.0016
1.86,0.4245,-0.0523,9.9376,0.0221,0.023,0.0098
1.88,0.3101,-0.2426,9.6582,-0.0108,-0.0125,-0.007
1.9,0.2625,-0.1518,9.5911,-0.0132,-0.0127,-0.01
1.92,0.355,-0.0301,9.9564,0.0129,0.0253,0.0111
1.94,0.4549,0.0422,9.8404,0.019,0.0002,0.0054
1.96,0.3425,-0.0807,9.7265,0.0044,-0.0039,-0.0006
1.98,0.3871,-0.0286,9.8268,0.017,0.0087,0.0113
2.0,0.3244,-0.1951,9.6685,-0.0055,0.0015,-0.0028
2.02,0.3675,-0.0491,9.8667,0.0059,0.0083,-0.0048
2.04,0.244,-0.1712,9.6882,-0.0044,-0.0151,-0.0061
2.06,0.4654,-0.0778,9.8782,0.0098,0.0155,-0.0012
2.08,0.1808,-0.1839,9.8115,0.0242,0.0084,0.0077
2.1,0.3274,-0.1285,9.7955,0.0123,0.0102,0.0012
2.12,0.3442,-0.1022,9.752,-0.0008,0.0007,-0.0023
2.14,0.3233,-0.0897,9.7929,0.0039,-0.0087,0.0002
2.16,0.205,-0.2219,9.4235,-0.0306,-0.0248,-0.0177
2.18,0.3485,-0.1618,9.5265,-0.0177,-0.0143,-0.0266
2.2,0.1831,-0.2004,9.7976,-0.0107,-0.0005,-0.0016
2.22,0.462,0.0272,10.0449,0.0256,0.0368,0.0075
2.24,0.2529,-0.0237,9.8157,0.0,0.0032,0.0029
2.26,0.2332,-0.2349,9.5877,-0.0045,-0.0164,-0.0032
2.28,0.2738,-0.0429,9.8325,-0.0032,0.0115,0.0016
2.3,0.5083,0.001,9.7115,0.037,0.0399,0.0045
2.32,0.3044,0.0041,9.8714,0.0196,0.0334,-0.008
2.34,0.3318,0.016,10.1505,0.0291,0.0265,0.0088
2.36,0.203,-0.3071,9.4643,-0.0345,-0.0275,-0.0465
2.38,0.339,-0.192,9.7582,-0.0046,-0.0097,-0.0087
2.4,0.3653,-0.0949,9.9693,0.0188,0.0013,-0.0006
2.42,0.4183,-0.0059,9.8663,0.0131,0.0204,-0.0125
2.44,0.086,-0.2831,9.6675,-0.012,0.0004,-0.0096
2.46,0.0229,-0.3893,9.6167,-0.0469,-0.0233,0.0015
2.48,0.1071,-0.2414,9.7681,-0.0484,-0.0135,0.0056
2.5,0.0542,-0.0622,9.7203,-0.0118,-0.0311,0.0256
2.52,0.1488,-0.1633,9.8994,0.0351,0.0084,0.0131
2.54,0.5136,-0.0178,10.0442,0.0799,0.0204,0.0151
2.56,0.5348,0.05,10.0292,0.1372,0.0378,0.053
2.58,0.4514,-0.0783,9.5324,0.1402,0.0396,-0.011
2.6,0.4204,-0.2855,9.586,0.1956,0.083,0.0045
2.62,0.4421,-0.1814,9.4785,0.1867,0.1235,-0.0017
2.64,0.4009,-0.5013,9.3275,-0.0053,-0.0225,-0.0237
2.66,0.3134,-0.083,9.2451,-0.2789,-0.1694,-0.1247
2.68,0.0349,-0.3185,8.9168,-0.6047,-0.3376,-0.1657
2.7,-0.5055,-0.0164,9.2791,-0.7689,-0.2659,-0.2087
2.72,-0.5454,0.2223,10.4432,-0.7587,0.0598,-0.1674
2.74,-0.7547,0.1102,11.7289,-0.4893,0.3653,-0.1224
2.76,0.0716,0.4469,12.4979,0.0668,0.5117,0.0313
2.78,1.2333,0.4542,11.7719,0.5846,0.3534,0.1118
2.8,1.399,0.3268,9.9901,0.8754,0.0045,0.2101
2.82,1.1597,-0.3321,8.9442,0.8179,-0.2862,0.2131
2.84,0.4092,-0.3868,8.9272,0.6217,-0.4027,0.1639
2.86,0.4769,-0.4914,8.9834,0.2304,-0.2328,0.1304
2.88,0.3035,-0.087,9.2517,-0.0211,0.0594,0.0422
2.9,0.2812,-0.3289,9.2026,-0.2403,0.0754,-0.0344
2.92,0.5791,-0.1712,9.9407,-0.161,0.1847,0.0215
2.94,0.2315,-0.1772,9.8672,-0.163,0.0954,-0.007
2.96,0.0242,-0.068,9.7937,-0.0894,0.0189,-0.0211
2.98,0.5529,0.1124,10.2849,-0.0342,0.0349,-0.0264
3.0,0.1889,-0.2932,9.8792,0.0347,0.012,-0.0319
3.02,-0.1136,-0.2936,9.5299,-0.0198,-0.0383,0.0105
3.04,0.3352,-0.0751,10.1286,0.0472,0.0003,-0.0158
3.06,0.4844,-0.2654,9.9373,0.095,-0.0067,-0.0701
3.08,0.4743,0.1627,9.8268,0.1535,0.0626,-0.0295
3.1,0.456,-0.044,9.5005,0.2499,0.1015,-0.0808
3.12,0.5388,-0.1365,9.348,0.2656,0.1874,0.0268
3.14,0.6333,0.1724,9.605,0.1778,0.1645,0.0222
3.16,-0.0058,-0.0184,9.0648,-0.0451,-0.0016,0.1195
3.18,-0.0547,-0.0069,8.9033,-0.4629,-0.3167,0.1302
3.2,-0.3395,-0.0734,8.8751,-0.7632,-0.3837,0.1848
3.22,-0.8934,-0.4741,9.2787,-0.9498,-0.1935,0.2431
3.24,-0.6717,-0.6911,10.4499,-0.7631,0.1775,0.1771
3.26,-0.5031,-0.5741,11.948,-0.341,0.4977,0.094
3.28,0.5116,-0.6888,12.3774,0.1539,0.4691,-0.0521
3.3,1.3323,-0.4432,11.1028,0.7171,0.2854,-0.1034
3.32,1.2246,-0.2623,9.5066,0.9245,-0.1183,-0.2163
3.34,1.0416,-0.158,8.8283,0.8634,-0.3663,-0.1939
3.36,0.413,-0.192,8.9047,0.533,-0.2702,-0.1626
3.38,0.5061,-0.1253,9.0413,0.2018,-0.1066,-0.111
3.4,0.5574,-0.2821,9.5421,-0.0839,0.0796,-0.0438
3.42,-0.1058,0.033,9.2864,-0.2216,0.1478,0.014
3.44,-0.0442,-0.0439,9.6745,-0.1991,0.0788,0.0546
3.46,-0.0695,-0.2347,9.633,-0.2043,0.0254,0.0445
3.48,0.1058,0.0035,9.868,-0.0916,-0.0318,-0.0011
3.5,0.2349,-0.1032,9.8653,0.0014,-0.0648,0.0053
3.52,0.4105,-0.1832,9.8917,-0.0022,-0.0485,0.0177
3.54,0.4768,0.017,9.7618,0.0179,0.0118,0.0102
3.56,0.2079,-0.1353,9.7155,0.0085,-0.005,-0.0008
3.58,0.1366,-0.3514,9.6167,-0.0461,-0.0055,-0.0275
3.6,0.095,-0.3193,9.8406,-0.0707,-0.0522,-0.0098
3.62,0.4393,0.1037,10.407,0.0907,-0.007,0.0567
3.64,0.2725,-0.1768,9.8069,0.0929,-0.0415,0.0437
3.66,0.6104,-0.1622,9.6501,0.124,0.0254,0.0205
3.68,0.4812,-0.1991,9.7452,0.2531,0.1001,0.0269
3.7,0.3101,-0.2842,9.3973,0.2394,0.1429,-0.0395
3.72,0.3612,-0.3297,8.8695,0.0654,0.0402,-0.026
3.74,0.1896,-0.5573,8.9041,-0.2442,-0.1663,-0.1222
3.76,0.0155,0.1121,9.3539,-0.5368,-0.3255,-0.161
3.78,-0.4396,-0.1289,9.1616,-0.8368,-0.3534,-0.2026
3.8,-0.8205,0.1083,9.5871,-0.9344,-0.0987,-0.1966
3.82,-0.7213,0.091,11.3479,-0.6614,0.2838,-0.1721
3.84,0.1768,-0.01,12.563,-0.1163,0.537,-0.0258
3.86,1.3741,0.4818,12.4665,0.4493,0.4821,0.0949
3.88,1.4308,0.311,10.4425,0.8457,0.1001,0.2119
3.9,1.5391,0.074,9.3923,0.9708,-0.2464,0.165
3.92,0.7641,-0.0641,9.0744,0.7461,-0.3439,0.2047
3.94,0.4425,-0.0368,9.2777,0.4124,-0.2364,0.1567
3.96,0.7369,-0.0596,9.3421,0.0773,0.0224,0.1015
3.98,0.1625,-0.0401,9.4366,-0.1887,0.0894,0.0411
4.0,0.2162,-0.4561,9.5228,-0.2738,0.0991,0.0062
4.02,0.3639,0.0287,9.6834,-0.1641,0.0806,-0.0143
4.04,0.2286,0.1425,9.9374,-0.1256,0.0288,-0.0503
4.06,0.3837,0.1177,10.1023,-0.057,0.0085,0.0072
4.08,0.2212,-0.1853,9.968,-0.0326,-0.0229,-0.035
4.1,0.3851,-0.2272,9.8996,0.0339,-0.0466,0.0047
4.12,0.4861,0.0701,10.1747,0.0952,0.0384,0.0044
4.14,0.8113,0.1628,10.4157,0.1131,0.0241,0.0032
4.16,0.3424,0.006,9.9499,0.1109,-0.0355,-0.0053
4.18,0.4566,0.0666,9.8538,0.1908,0.0874,-0.0205
4.2,0.5623,0.1114,9.6853,0.2415,0.1478,-0.0251
4.22,0.5957,0.0489,9.6382,0.1965,0.1321,0.0497
4.24,0.1369,0.0524,9.3427,-0.0751,-0.044,0.0766
4.26,0.2586,0.1124,9.1657,-0.3323,-0.2162,0.146
4.28,-0.2449,-0.2829,8.8134,-0.7541,-0.365,0.2003
4.3,-0.8283,-0.3543,9.0988,-0.9094,-0.2546,0.2182
4.32,-0.845,-0.1842,10.5706,-0.7759,0.08,0.1607
4.34,-0.0344,-0.0823,12.2423,-0.3157,0.4189,0.0846
4.36,0.502,-0.5962,12.1166,0.1651,0.5037,-0.0737
4.38,1.5327,-0.3338,11.3762,0.6088,0.2704,-0.1196
4.4,1.2345,-0.2366,9.6975,0.8352,-0.1227,-0.2293
4.42,1.0754,-0.1867,8.9991,0.7873,-0.3348,-0.1694
4.44,0.6519,0.1379,9.038,0.5845,-0.2722,-0.1362
4.46,0.4344,-0.049,9.1569,0.1482,-0.0995,-0.0873
4.48,0.3551,-0.0961,9.4996,-0.0495,0.1145,-0.017
4.5,-0.022,-0.041,9.4033,-0.2232,0.0926,-0.0175
4.52,0.2786,0.1884,9.6667,-0.2235,0.1319,0.0522
4.54,0.3031,0.0995,9.6417,-0.1197,0.0449,-0.0042
4.56,0.1926,-0.3102,10.0824,-0.0876,-0.004,0.0004
4.58,0.5598,-0.0373,10.1712,0.0107,-0.0402,0.0493
4.6,0.4348,-0.2202,9.7904,-0.01,-0.0211,0.0077
4.62,0.7296,0.0744,10.321,0.0616,0.0731,0.0137
4.64,0.3337,0.1426,9.7503,-0.0036,-0.0381,-0.0153
4.66,0.5631,0.0839,10.2892,0.0558,0.012,0.0527
4.68,0.5175,0.2323,10.0699,0.173,0.0208,0.0236
4.7,0.4606,-0.3953,9.515,0.1204,0.08,-0.0029
4.72,0.1882,-0.3514,9.2767,0.1464,0.1609,0.0301
4.74,0.1799,-0.4126,9.3049,0.1686,0.0993,-0.0041
4.76,0.376,-0.1855,9.5694,0.0127,0.0209,-0.0833
4.78,0.1787,0.2689,9.0497,-0.2958,-0.2386,-0.1901
4.8,-0.5992,-0.251,8.4915,-0.6676,-0.3794,-0.1972
4.82,-0.5235,-0.2785,9.2165,-0.7387,-0.2093,-0.1636
4.84,-0.6442,-0.0588,10.3228,-0.6505,0.0888,-0.1216
4.86,0.1193,0.5388,12.1549,-0.2653,0.3843,-0.0747
4.88,-0.0269,-0.1337,11.7628,0.1003,0.4041,0.0158
4.9,0.9128,0.1512,11.2169,0.5205,0.2126,0.111
4.92,1.1655,0.1387,9.5321,0.8204,-0.0812,0.183
4.94,0.5155,-0.3645,8.9166,0.7254,-0.3032,0.1625
4.96,0.3756,-0.239,8.8089,0.4549,-0.2576,0.1413
4.98,0.0806,-0.2027,8.7526,0.1034,-0.186,0.0756
5.0,-0.0743,-0.4705,9.3835,-0.0685,0.0658,0.0486
5.02,0.1015,-0.209,9.4451,-0.1492,0.1325,-0.0287
5.04,0.453,-0.142,9.2789,-0.1842,0.0587,-0.0564
5.06,-0.6272,-0.4669,9.4188,-0.1133,0.0261,-0.0287
5.08,0.6093,0.185,10.0185,-0.0321,0.0056,-0.0044
5.1,0.457,-0.0741,9.9499,-0.0371,-0.0105,-0.0285
5.12,-0.1575,-0.4677,9.8949,0.0144,-0.0111,0.0413
5.14,0.3001,-0.2876,9.902,0.0502,0.0221,0.0299
5.16,0.2141,-0.5394,9.6608,-0.0048,-0.0414,-0.0098
5.18,0.1711,0.2264,9.9313,0.0256,-0.0224,0.0014
5.2,0.4631,-0.136,9.9874,0.0261,0.0009,-0.0136
5.22,0.3621,-0.3935,9.7608,0.0695,-0.0308,-0.0258
5.24,0.6794,-0.0688,9.7448,0.2146,0.0829,0.0042
5.26,0.7427,0.2517,9.6838,0.3004,0.115,-0.0008
5.28,0.2684,-0.3155,9.2119,0.2125,0.1126,0.0146
5.3,0.0033,-0.1493,9.1691,0.0146,0.0372,0.0448
5.32,-0.0551,-0.2998,8.7762,-0.2848,-0.1498,0.1291
5.34,-0.2446,-0.3908,8.9295,-0.5408,-0.3122,0.1928
5.36,-0.528,-0.5295,8.7763,-0.868,-0.3634,0.2047
5.38,-1.0084,-0.2036,9.757,-0.8204,-0.0653,0.1728
5.4,-0.954,-0.4351,11.1651,-0.5186,0.3067,0.1462
5.42,-0.155,-0.6147,12.4358,-0.0814,0.4934,0.0448
5.44,0.8091,-0.2279,11.7926,0.4433,0.3926,-0.1001
5.46,1.0472,-0.4376,10.2866,0.8647,0.0445,-0.1838
5.48,0.9057,-0.4052,8.6002,0.8614,-0.3125,-0.227
5.5,0.2847,-0.6363,8.7985,0.5987,-0.3924,-0.2029
5.52,0.1931,-0.1543,8.8352,0.3465,-0.1924,-0.1581
5.54,0.2472,-0.3041,9.0287,0.0025,-0.0361,-0.1143
5.56,0.0679,-0.1163,9.3952,-0.1709,0.1162,0.0032
5.58,-0.0956,-0.031,9.3217,-0.2038,0.1636,0.0252
5.6,-0.1338,-0.2404,9.537,-0.2456,0.0534,0.0248
5.62,-0.0724,-0.3799,9.4855,-0.1414,-0.021,-0.0186
5.64,0.025,-0.2745,10.0127,0.0081,0.0016,0.0282
5.66,0.2479,0.0108,10.0688,0.0291,-0.0019,0.0426
5.68,0.1714,-0.0149,9.9292,0.0272,-0.0069,-0.0048
5.7,0.1526,-0.1434,9.8269,-0.0038,-0.0395,-0.0059
5.72,0.3409,0.2609,10.2974,0.0694,0.0398,0.0167
5.74,-0.2702,-0.4413,9.8995,-0.0279,-0.0102,-0.0429
5.76,-0.0061,-0.1179,9.9139,0.0413,-0.0508,0.0134
5.78,0.3864,-0.0412,9.8844,0.073,-0.0245,0.029
5.8,0.5664,-0.3246,9.9213,0.1619,0.0461,0.0093
5.82,0.4336,-0.0856,9.555,0.2311,0.0563,-0.0022
5.84,0.6064,-0.2802,9.5146,0.2536,0.1282,0.0286
5.86,0.1942,-0.5564,9.2285,0.1437,0.0478,-0.053
5.88,0.0708,-0.1664,8.9986,-0.1453,-0.0634,-0.0787
5.9,0.0445,-0.2968,8.8633,-0.3879,-0.276,-0.1248
5.92,-0.3539,-0.1585,8.9759,-0.7242,-0.3309,-0.1923
5.94,-0.764,-0.016,9.3476,-0.8912,-0.2034,-0.2267
5.96,-0.6209,0.6519,10.9681,-0.7205,0.1588,-0.2009
5.98,-0.2118,-0.1206,12.2603,-0.283,0.4541,-0.0597
6.0,0.3297,0.4324,12.436,0.2493,0.5124,0.0564
6.02,1.5813,0.0354,11.6603,0.7014,0.2609,0.1381
6.04,1.5553,0.1606,9.8662,0.9103,-0.1163,0.2033
6.06,0.917,-0.0636,8.9695,0.812,-0.3393,0.2404
6.08,0.5754,-0.4067,9.183,0.4875,-0.2947,0.1218
6.1,0.4736,-0.1936,9.3831,0.1993,-0.0576,0.1221
6.12,0.4897,-0.3878,9.2481,-0.0997,0.0578,0.0651
6.14,0.2329,-0.2751,9.6436,-0.1625,0.1557,0.0292
6.16,0.0809,-0.1834,9.4699,-0.2303,0.0714,-0.0853
6.18,0.0519,0.0239,9.8502,-0.113,0.052,-0.0373
6.2,0.1831,-0.0759,9.9955,-0.0584,-0.0264,-0.0213
6.22,0.0257,0.0024,10.2005,-0.0065,-0.0252,-0.0136
6.24,0.3815,-0.2307,9.8844,-0.0169,-0.0183,-0.0195
6.26,0.5036,0.2909,10.112,0.0676,0.0047,-0.019
6.28,0.2734,-0.0583,9.9516,0.018,-0.0129,-0.0332
6.3,0.6459,-0.0568,10.1556,0.0124,-0.0164,0.0014
6.32,0.342,-0.3186,10.1996,0.0458,-0.0685,-0.0326
6.34,0.529,-0.3562,9.6156,0.1387,-0.0227,-0.0167
6.36,0.6912,0.0477,9.8445,0.2345,0.0866,-0.0115
6.38,0.4254,-0.0122,9.4503,0.2333,0.1002,-0.0669
6.4,0.4704,0.2407,9.6981,0.1803,0.1629,0.0063
6.42,0.1752,0.0822,9.3496,0.0356,0.0077,0.1118
6.44,0.502,0.1897,9.0475,-0.3019,-0.2541,0.1097
6.46,-0.1145,-0.1247,9.0864,-0.6714,-0.3604,0.203
6.48,-0.6866,-0.0462,9.1028,-0.9162,-0.3095,0.1969
6.5,-0.9454,-0.6203,10.1212,-0.8615,0.0016,0.1516
6.52,-0.5235,-0.6725,12.1298,-0.4442,0.418,0.1178
6.54,0.4836,-0.1629,13.0938,0.0895,0.5426,0.0112
6.56,0.9195,-0.6957,11.3201,0.5056,0.3222,-0.1735
6.58,1.203,-0.2926,9.7634,0.8759,-0.0717,-0.2076
6.6,1.1808,-0.2917,9.1518,0.8644,-0.345,-0.2138
6.62,0.6014,0.1596,8.9568,0.5996,-0.3772,-0.2257
6.64,0.8364,0.0222,9.1596,0.2788,-0.1582,-0.1349
6.66,0.4112,0.19,9.3422,0.0042,0.0795,-0.0257
6.68,0.4759,-0.0925,9.5474,-0.218,0.1569,-0.007
6.7,0.0405,0.0551,9.3088,-0.2156,0.1157,-0.0195
6.72,0.0411,0.0642,9.8941,-0.1046,0.0677,0.0688
6.74,-0.1213,-0.1391,10.0968,-0.1114,0.007,0.0222
6.76,0.1045,-0.1904,9.9317,-0.0103,-0.0887,0.0239
6.78,0.2364,-0.2854,9.9993,-0.0046,-0.0453,0.0327
6.8,0.6879,-0.2764,9.9048,0.0714,0.0461,-0.0118
6.82,0.1524,-0.1666,10.0432,0.0203,0.014,0.0473
6.84,0.1817,-0.3792,9.9458,0.0154,-0.0199,-0.0233
6.86,0.5916,0.0563,10.0646,0.1017,-0.0156,0.0379
6.88,0.1904,-0.4469,9.6355,0.0872,-0.0494,0.0083
6.9,0.648,-0.3602,9.5482,0.191,0.0576,0.0159
6.92,0.4814,0.1758,9.4442,0.2911,0.1588,0.0478
6.94,0.5084,-0.4373,9.0202,0.1638,0.106,-0.0404
6.96,0.4419,-0.3197,9.2407,0.0155,0.0408,-0.0865
6.98,-0.1177,-0.4503,9.0624,-0.3256,-0.2137,-0.1489
7.0,-0.0793,-0.0825,8.9459,-0.6888,-0.3491,-0.1834
7.02,-0.9053,-0.0881,8.895,-0.8873,-0.2504,-0.2104
7.04,-1.0543,0.0782,10.1459,-0.8116,0.0293,-0.2022
7.06,-0.6044,-0.0943,12.082,-0.4704,0.4395,-0.1196
7.08,0.6479,0.182,13.147,0.1259,0.5391,0.0438
7.1,0.994,0.0253,11.1879,0.6125,0.3271,0.1561
7.12,1.6323,0.1163,9.7838,0.9646,-0.077,0.205
7.14,1.1399,-0.4657,9.0223,0.9171,-0.3379,0.1527
7.16,0.7098,-0.3032,8.8612,0.606,-0.3103,0.2046
7.18,0.3964,-0.1001,9.1363,0.2893,-0.1546,0.125
7.2,0.1104,-0.5898,8.8672,-0.0456,0.0216,0.0522
7.22,0.0024,-0.4919,9.1264,-0.2247,0.1403,0.0362
7.24,0.1735,-0.3358,9.1995,-0.1772,0.109,0.0332
7.26,0.3866,-0.1208,9.7416,-0.1928,0.056,-0.049
7.28,0.2057,-0.1138,9.9806,-0.0211,0.0303,0.0003
7.3,0.1863,-0.0562,10.0151,-0.0274,-0.0158,-0.0111
7.32,0.4126,-0.2694,9.8802,0.0345,0.0055,-0.0152
7.34,0.0794,-0.1275,9.5851,0.0113,-0.0091,-0.0424
7.36,0.312,-0.4583,9.6012,-0.0016,-0.0685,-0.0252
7.38,0.1805,-0.1842,9.9757,0.0411,-0.0309,0.0297
7.4,0.1622,-0.5104,9.5684,0.0915,-0.0738,-0.0176
7.42,0.0449,-0.4635,9.3361,0.0962,-0.0053,-0.0298
7.44,0.5747,-0.0942,9.4343,0.2061,0.0794,0.0297
7.46,-0.1618,-0.3301,9.0739,0.2242,0.1099,-0.0432
7.48,0.2353,-0.2148,8.9086,0.1332,0.1051,0.0134
7.5,-0.0839,-0.3024,8.9073,-0.1146,-0.094,0.1104
7.52,-0.0791,-0.2834,8.8426,-0.431,-0.2861,0.1134
7.54,-0.3895,-0.2334,8.901,-0.7598,-0.3538,0.184
7.56,-1.0871,-0.6174,9.1688,-0.8656,-0.1717,0.1417
7.58,-0.7447,-0.5144,10.9943,-0.7009,0.1655,0.1127
7.6,0.0713,-0.4527,12.6523,-0.2054,0.4687,0.1089
7.62,0.6366,-0.5938,11.9747,0.3405,0.4337,-0.0211
7.64,1.0021,-0.867,10.6111,0.6938,0.1071,-0.2026
7.66,1.1002,-0.6765,8.9821,0.8507,-0.2013,-0.2079
7.68,0.6606,-0.3979,9.0432,0.7042,-0.3406,-0.1935
7.7,0.3385,0.0559,9.1081,0.4464,-0.2642,-0.1241
7.72,0.3545,0.079,9.4386,0.1191,-0.0719,-0.0617
7.74,0.0792,0.0754,9.3807,-0.052,0.1351,-0.0772
7.76,0.1134,-0.3094,9.2327,-0.2394,0.0796,-0.0063
7.78,0.0888,0.0847,9.6442,-0.1491,0.0914,0.0149
7.8,-0.152,-0.2541,9.7339,-0.1128,0.0029,0.0078
7.82,0.3213,-0.2015,10.0824,-0.0574,0.0093,-0.0045
7.84,0.3986,0.1109,9.9589,0.0307,-0.0164,0.0586
7.86,0.3024,-0.2075,9.694,0.0585,-0.0124,-0.0216
7.88,0.0599,-0.3281,9.6351,0.0241,-0.0419,-0.01
7.9,0.0295,-0.1299,9.9724,0.0584,-0.0014,0.0265
7.92,0.2269,-0.1775,9.8326,0.0486,-0.0342,0.0197
7.94,0.3155,0.025,9.8555,0.1174,-0.0184,0.0233
7.96,0.4886,-0.3372,9.8904,0.2103,-0.0008,0.0479
7.98,0.5212,-0.2282,9.3468,0.2323,0.0998,-0.018
8.0,0.1175,-0.3423,9.2226,0.2286,0.1098,-0.0076
8.02,0.2105,-0.6817,9.1955,0.1605,0.0707,-0.0673
8.04,0.4521,-0.3241,9.2258,-0.128,-0.1262,-0.119
8.06,0.1027,-0.1501,8.9376,-0.5517,-0.3656,-0.1609
8.08,-0.7503,-0.2068,8.6514,-0.9337,-0.4136,-0.2355
8.1,-0.7038,0.0214,9.7094,-0.9407,-0.1693,-0.1689
8.12,-1.0899,0.2842,11.5659,-0.7582,0.2397,-0.1677
8.14,-0.1382,0.0635,13.0376,-0.1805,0.5565,-0.0554
8.16,0.7527,0.1503,12.5061,0.3703,0.4451,0.0444
8.18,1.8967,0.2686,11.1159,0.9017,0.1633,0.2071
8.2,1.3877,-0.1793,9.3176,1.027,-0.246,0.2123
8.22,0.6633,-0.2842,8.7715,0.8366,-0.4323,0.2299
8.24,0.3718,-0.2687,9.0864,0.4302,-0.3173,0.1816
8.26,0.4568,-0.2146,9.2584,0.1371,-0.0539,0.1389
8.28,0.2537,-0.0951,9.4579,-0.1412,0.1216,0.0268
8.3,0.0731,-0.2363,9.4263,-0.2511,0.0977,-0.044
8.32,-0.1146,-0.3482,9.563,-0.2258,0.0609,-0.0371
8.34,-0.0532,-0.289,9.9629,-0.1132,0.0244,-0.0485
8.36,0.319,-0.1206,10.4392,-0.0408,-0.0345,-0.0221
8.38,0.3541,-0.0158,10.1629,0.0365,0.005,0.023
8.4,0.289,-0.1635,9.6202,0.0383,-0.031,-0.0513
8.42,0.5646,0.0323,10.0564,0.0089,-0.0329,0.0175
8.44,0.1672,-0.0675,9.755,0.0027,-0.0857,-0.0309
8.46,0.2632,0.0378,10.1996,0.1113,-0.0412,-0.0062
8.48,0.6686,0.2329,10.4174,0.1982,0.0774,-0.0261
8.5,0.838,-0.1245,9.7268,0.2064,0.0622,-0.0391
8.52,0.7455,-0.2678,9.7277,0.2057,0.0913,0.0001
8.54,0.1993,0.1031,9.2346,0.11,0.0603,0.0561
8.56,0.1854,0.0726,9.0355,-0.1651,-0.125,0.1204
8.58,0.2429,0.1727,9.2116,-0.4242,-0.2654,0.1748
8.6,-0.1303,-0.1101,9.2872,-0.7048,-0.3427,0.152
8.62,-0.5065,0.0375,9.867,-0.7256,-0.0808,0.1951
8.64,-0.4432,-0.3528,11.4402,-0.6456,0.2004,0.1009
8.66,-0.1092,-0.2079,12.9454,-0.1233,0.448,0.0124
8.68,1.1614,-0.2778,12.3076,0.3721,0.4417,-0.0275
8.7,1.6179,-0.0923,10.6887,0.682,0.0953,-0.1462
8.72,1.1382,-0.5018,9.4085,0.8144,-0.2309,-0.1947
8.74,0.9877,0.1854,9.1873,0.6621,-0.3015,-0.1286
8.76,0.2349,0.2214,9.4666,0.4369,-0.2258,-0.1159
8.78,0.5458,0.1068,9.5381,0.15,0.0086,-0.0565
8.8,0.5257,-0.0921,9.4616,-0.103,0.0646,0.0014
8.82,0.2953,-0.015,9.6007,-0.1909,0.1434,0.0503
8.84,0.0961,-0.1345,9.951,-0.1502,0.047,0.0357
8.86,0.294,-0.0505,9.8342,-0.0766,-0.0109,0.0118
8.88,0.0336,-0.1451,10.0087,-0.0614,-0.0552,-0.0079
8.9,0.1678,-0.0019,9.8913,-0.0177,-0.0774,0.01
8.92,0.1063,-0.0091,9.9031,0.0576,-0.0232,0.0369
8.94,0.2898,-0.2018,9.6647,-0.0117,-0.0319,0.006
8.96,0.1426,0.0121,10.1101,-0.0087,0.0095,0.0306
8.98,0.287,-0.2624,9.8974,0.0274,-0.0648,-0.0166
9.0,0.7079,0.0165,10.3479,0.0726,0.0203,-0.0118
9.02,0.0862,-0.0981,9.977,0.0927,0.0075,0.0327
9.04,0.1524,-0.3258,9.3981,0.1559,-0.0144,0.0447
9.06,0.5287,-0.3416,9.4409,0.1971,0.0932,0.0486
9.08,0.4113,-0.3997,9.5604,0.2285,0.1565,0.021
9.1,0.364,-0.291,9.3627,0.0938,0.036,-0.0436
9.12,0.3495,-0.1119,9.1048,-0.1886,-0.1465,-0.0682
9.14,-0.3296,-0.4716,8.7838,-0.558,-0.3085,-0.1496
9.16,-0.776,-0.1319,8.8094,-0.7876,-0.3103,-0.223
9.18,-0.7623,0.2686,9.9188,-0.7716,-0.0161,-0.1738
9.2,-0.9061,-0.2441,11.4228,-0.4881,0.265,-0.1358
9.22,0.35,0.173,12.7712,-0.0495,0.4875,-0.0392
9.24,0.9119,0.1408,11.6269,0.4819,0.3149,0.0807
9.26,1.3848,-0.1071,9.9683,0.8457,0.012,0.1568
9.28,0.9427,-0.196,9.0419,0.8207,-0.3017,0.1973
9.3,0.6715,-0.5044,8.8637,0.6347,-0.3308,0.1663
9.32,0.2692,-0.4119,9.0195,0.3307,-0.2091,0.1016
9.34,-0.0101,-0.4525,9.2401,0.0198,-0.0058,0.0309
9.36,0.1572,-0.283,9.4471,-0.1307,0.1275,0.0229
9.38,0.158,-0.3091,9.593,-0.2186,0.0977,0.0011
9.4,-0.3856,-0.3971,9.2693,-0.1478,0.0193,-0.0237
9.42,-0.0961,-0.1521,9.5089,-0.0944,-0.036,-0.0749
9.44,0.029,-0.4582,9.5612,-0.0958,-0.0809,-0.0442
9.46,0.0563,0.1886,9.8768,0.069,-0.0493,-0.0483
9.48,0.6418,-0.252,9.7865,0.0707,-0.0471,-0.0071
9.5,-0.0407,-0.1888,9.5641,-0.0086,-0.0252,0.0062
9.52,0.2041,-0.0279,10.1881,0.0221,-0.0351,-0.023
9.54,-0.059,-0.4114,9.8094,0.0309,-0.0149,0.025
9.56,0.2787,-0.292,9.7726,-0.0012,-0.0415,-0.0374
9.58,0.4573,-0.1405,9.8477,0.0991,0.0474,-0.0235
9.6,0.4733,-0.4289,9.5823,0.2005,0.0353,0.0319
9.62,-0.0033,-0.0833,9.4433,0.2344,0.085,-0.0062
9.64,0.4456,0.0982,9.3939,0.284,0.1635,0.0325
9.66,-0.5382,-0.6306,8.9921,0.0789,0.0498,0.0205
9.68,-0.171,-0.2862,8.5923,-0.212,-0.1973,0.1174
9.7,-0.4035,-0.2446,8.9903,-0.5695,-0.3839,0.1753
9.72,-0.7626,-0.7101,8.3252,-0.9808,-0.3996,0.2107
9.74,-1.0945,-0.447,9.4409,-0.9553,-0.1116,0.2317
9.76,-0.9218,-0.5658,11.7725,-0.7064,0.3045,0.1229
9.78,-0.4248,-0.8277,12.6009,-0.1642,0.5011,0.0094
9.8,1.0276,-0.4977,12.4468,0.4429,0.4298,-0.0418
9.82,1.5871,-0.4053,10.8041,0.9418,0.0484,-0.1777
9.84,1.4483,-0.6219,8.7691,0.9707,-0.299,-0.2409
9.86,0.6265,-0.6718,8.6055,0.7868,-0.4277,-0.2524
9.88,0.5308,-0.0104,8.8279,0.4432,-0.245,-0.1313
9.9,0.1435,-0.3226,9.1259,0.0888,-0.0851,-0.0424
9.92,0.3274,0.3489,9.1,-0.158,0.1317,-0.0625
9.94,-0.2093,-0.1521,9.2835,-0.2589,0.1053,-0.0029
9.96,0.1437,-0.132,9.7036,-0.206,0.1405,0.0202
9.98,-0.084,-0.4864,9.547,-0.1859,-0.0431,-0.023
10.0,0.1617,-0.1316,9.9361,-0.0193,-0.0342,0.0352
10.02,0.2341,-0.2845,9.7365,-0.0066,-0.018,0.0158
10.04,0.0817,-0.3214,9.2543,-0.0321,-0.0718,-0.0123
10.06,0.418,0.002,9.8852,0.0756,-0.0194,0.0274
10.08,0.0794,0.0608,9.6963,0.0265,-0.0042,-0.0108
10.1,0.3401,-0.2119,9.7211,-0.0158,-0.0488,0.0132
10.12,0.1584,-0.0198,9.4288,0.0193,-0.0635,0.0148
10.14,0.1702,-0.3132,9.697,0.1226,-0.0211,0.0341
10.16,0.5152,-0.3312,9.8236,0.2186,0.105,0.0613
10.18,0.2261,-0.1775,9.478,0.2238,0.0881,-0.0236
10.2,0.3674,-0.2256,9.4513,0.1883,0.1678,-0.0071
10.22,0.1216,-0.7206,9.2329,0.0004,-0.0269,-0.1089
10.24,0.3033,-0.2224,9.1271,-0.3075,-0.2498,-0.1074
10.26,-0.3402,-0.277,8.9293,-0.6897,-0.3928,-0.1752
10.28,-0.514,0.1925,9.2575,-0.7685,-0.2569,-0.2075
10.3,-1.3024,-0.1873,10.1524,-0.8016,0.0642,-0.1952
10.32,-0.5706,0.3305,11.9782,-0.422,0.3424,-0.0463
10.34,0.7618,0.3107,13.1601,0.0997,0.4688,0.0233
10.36,1.5496,0.1721,11.3927,0.6015,0.2732,0.1558
10.38,1.8007,0.1852,9.7664,0.8637,-0.1025,0.2499
10.4,1.183,0.0849,8.8556,0.8357,-0.3662,0.1814
10.42,0.5378,-0.2089,9.0771,0.555,-0.3543,0.1563
10.44,0.6772,-0.0923,9.3708,0.272,-0.1972,0.1372
10.46,-0.1596,-0.7002,8.9225,-0.107,0.0111,0.0278
10.48,0.2944,-0.0574,9.6505,-0.1533,0.1306,0.0366
10.5,-0.0987,-0.1574,9.4626,-0.2313,0.1244,-0.0158
10.52,0.3257,-0.1493,10.0375,-0.1496,0.0418,-0.0351
10.54,0.4706,-0.1844,9.7374,-0.0476,-0.0779,-0.075
10.56,0.4095,-0.2202,9.9207,-0.0249,-0.0488,-0.0096
10.58,0.2577,0.0524,10.0601,0.0091,-0.0103,0.0342
10.6,0.3325,0.1212,9.8555,-0.0512,-0.0164,-0.0477
10.62,0.11,-0.1496,9.8235,0.0016,0.0002,-0.0368
10.64,0.1677,0.0215,9.9281,-0.0153,-0.0114,-0.0205
10.66,0.439,0.2201,10.1442,0.0141,0.0158,0.011
10.68,0.364,-0.1141,9.8482,-0.0175,-0.0119,-0.0088
10.7,0.1701,-0.0492,9.966,0.0193,-0.0479,-0.0557
10.72,0.6824,0.0368,9.9125,0.1677,0.004,-0.0289
10.74,0.3971,0.1078,9.5892,0.2237,0.0422,-0.0614
10.76,0.5899,-0.2498,9.7148,0.2563,0.1157,0.011
10.78,0.6241,-0.1438,9.3841,0.2065,0.1274,0.0145
10.8,0.2662,0.2256,9.0453,0.012,-0.02,0.0526
10.82,0.0978,0.0192,8.9048,-0.3052,-0.2586,0.1729
10.84,0.0708,-0.2377,8.5782,-0.7166,-0.4098,0.2087
10.86,-0.603,-0.3198,8.9794,-0.8694,-0.268,0.2374
10.88,-1.1586,-0.5676,10.0452,-0.8566,0.0244,0.1614
10.9,-0.6236,-0.6819,12.0577,-0.5067,0.3519,0.15
10.92,0.3739,-0.1439,13.7246,0.0844,0.5593,-0.0284
10.94,1.2062,-0.5682,12.2704,0.6597,0.3773,-0.0823
10.96,1.4461,-0.4119,9.9948,0.9289,-0.0761,-0.1998
10.98,1.4962,-0.3533,9.3129,0.9533,-0.3279,-0.2159
11.0,0.8241,-0.1734,8.8814,0.6576,-0.4145,-0.2266
11.02,0.5156,-0.4788,8.8133,0.2517,-0.1731,-0.1206
11.04,0.1752,-0.2541,8.816,-0.0933,-0.0373,-0.1029
11.06,0.4862,0.2663,9.3855,-0.1876,0.1263,0.0171
11.08,-0.0054,-0.259,9.3544,-0.2729,0.0901,0.0121
11.1,0.183,-0.2577,9.5314,-0.1679,0.0291,0.0164
11.12,0.0672,-0.3181,9.7627,-0.0859,-0.0069,0.028
11.14,0.1191,-0.4931,10.0113,-0.0336,-0.0124,-0.0023
11.16,0.2512,-0.4189,9.7684,-0.0251,-0.0595,-0.0191
11.18,0.3116,-0.4084,9.9454,0.0167,-0.0228,-0.0064
11.2,0.4529,-0.1979,10.2958,0.0276,0.0058,0.0153
11.22,0.4377,-0.1484,10.1777,0.0245,-0.0249,0.0812
11.24,0.4753,-0.2036,9.7428,0.1187,-0.0183,0.0533
11.26,0.529,-0.0969,9.8444,0.1409,0.0036,0.0581
11.28,0.3721,-0.2214,9.1094,0.229,0.0795,0.024
11.3,0.3606,-0.4367,9.5563,0.2162,0.1435,-0.0274
11.32,0.1263,-0.2901,9.2233,0.0801,0.0597,-0.0279
11.34,0.2555,-0.2059,8.9264,-0.2102,-0.2016,-0.1004
11.36,-0.3159,-0.5278,8.9313,-0.5669,-0.3594,-0.139
11.38,-0.6327,0.1082,9.0314,-0.7999,-0.2728,-0.2252
11.4,-1.0781,-0.0508,9.8982,-0.8022,-0.0613,-0.1847
11.42,-0.86,0.1252,11.5048,-0.4793,0.3243,-0.0873
11.44,0.7473,0.5281,13.0597,-0.0131,0.4581,0.0086
11.46,1.121,0.1345,11.7807,0.4872,0.3108,0.0761
11.48,1.228,0.1013,9.9577,0.8283,-0.0015,0.1212
11.5,1.0992,-0.1187,9.0153,0.801,-0.3109,0.1968
11.52,0.6266,-0.5342,8.608,0.641,-0.3536,0.1452
11.54,0.2003,-0.4514,8.98,0.3094,-0.2409,0.1688
11.56,0.4237,-0.3276,9.0233,0.0194,0.0258,0.0282
11.58,0.1533,-0.6925,9.0837,-0.1626,0.0976,0.0258
11.6,-0.0971,-0.3384,9.3023,-0.2058,0.1284,-0.0221
11.62,0.0635,-0.2765,9.2604,-0.1551,0.0742,-0.01
11.64,0.105,-0.0107,9.8143,-0.0646,0.0121,0.0207
11.66,0.3237,-0.0757,9.7049,-0.0844,-0.0487,-0.0278
11.68,0.2401,-0.2067,9.4395,-0.0006,-0.0137,-0.0467
11.7,0.6154,-0.0241,9.8635,0.063,0.0189,-0.0291
11.72,-0.1501,-0.1585,9.4377,-0.0247,-0.0496,-0.0608
11.74,0.166,-0.1797,9.9568,0.041,-0.0733,-0.0188
11.76,0.2923,-0.5774,9.7975,0.0686,-0.0631,-0.0254
11.78,0.2643,-0.4483,9.5868,0.1687,-0.0065,-0.0325
11.8,0.5279,-0.0438,9.229,0.2967,0.1051,-0.0231
11.82,0.2311,0.0658,8.7345,0.2462,0.1304,-0.0425
11.84,0.0134,-0.3537,8.9979,0.0858,0.055,0.0248
11.86,0.3648,-0.4732,8.8596,-0.1604,-0.1559,0.1591
11.88,0.007,-0.3239,8.7711,-0.5721,-0.4034,0.1825
11.9,-1.0172,-0.5164,8.6613,-0.8532,-0.4059,0.2195
11.92,-1.4033,-0.4129,9.4618,-0.9728,-0.1806,0.1868
11.94,-1.4844,-0.9156,10.843,-0.7199,0.1752,0.1731
11.96,0.0633,-0.5293,13.2889,-0.1762,0.5283,0.0556
11.98,1.2477,-0.665,12.7494,0.4121,0.5235,-0.0411
12.0,1.56,-0.8238,10.2997,0.8717,0.1107,-0.1643
12.02,1.5306,-0.4114,9.0226,1.0215,-0.2719,-0.2016
12.04,0.93,-0.1995,8.6202,0.8331,-0.415,-0.2245
12.06,0.6098,0.1266,8.7149,0.4899,-0.2966,-0.1611
12.08,0.2583,-0.0907,8.5752,0.0883,-0.0767,-0.1119
12.1,0.0339,-0.3612,8.4106,-0.211,0.0433,-0.04
12.12,-0.2015,0.0063,9.1752,-0.2577,0.1384,0.0258
12.14,0.0886,-0.2047,9.376,-0.2256,0.0716,0.0337
12.16,-0.1416,-0.229,9.8074,-0.1208,0.0389,0.0162
12.18,0.1523,0.0703,9.7783,-0.0373,-0.0233,0.0507
12.2,0.0991,-0.027,9.9381,-0.0212,-0.0355,-0.0012
12.22,0.4184,-0.3109,10.1424,0.0718,-0.0057,0.0126
12.24,0.0324,-0.4897,9.3097,-0.0029,-0.0625,-0.0103
12.26,0.4745,0.2004,10.1115,0.0134,-0.0495,0.0091
12.28,0.5746,-0.165,9.7719,0.0176,-0.0455,0.0525
12.3,0.4232,-0.4646,9.7503,0.1283,0.0001,0.0173
12.32,0.2078,-0.3011,9.7063,0.1679,0.0431,0.001
12.34,0.5983,-0.2135,9.2863,0.2537,0.13,0.0193
12.36,0.3656,-0.1345,9.3719,0.2433,0.1276,-0.0319
12.38,0.5058,-0.5771,9.2028,0.0582,0.0062,-0.0428
12.4,0.4293,-0.563,9.0286,-0.2841,-0.1922,-0.1004
12.42,0.1215,-0.3075,8.9665,-0.6406,-0.3916,-0.1878
12.44,-0.799,0.245,8.9558,-0.8067,-0.3164,-0.1855
12.46,-1.1002,-0.1318,9.8008,-0.846,-0.0594,-0.164
12.48,-0.269,0.0357,11.8426,-0.5062,0.299,-0.1218
12.5,0.3654,0.5352,13.2633,-0.0019,0.4611,-0.0155
12.52,1.1518,-0.2756,11.8477,0.5108,0.3185,0.1089
12.54,1.464,0.3379,10.0359,0.8107,-0.0059,0.154
12.56,1.3809,0.1231,8.7919,0.8617,-0.2992,0.2413
12.58,0.9491,-0.3101,8.8113,0.6457,-0.3778,0.1762
12.6,0.4571,-0.1046,9.0278,0.2789,-0.2212,0.1337
12.62,0.4449,-0.3748,8.9806,0.0117,-0.0047,0.055
12.64,0.3601,-0.3409,9.0271,-0.2263,0.1045,-0.006
12.66,0.2407,-0.3334,9.4257,-0.2883,0.1084,-0.0252
12.68,0.1074,-0.2019,9.3845,-0.194,0.0318,-0.0579
12.7,-0.0085,-0.2974,9.5696,-0.0962,-0.0435,-0.0041
12.72,0.3481,-0.0753,9.958,-0.0473,-0.01,-0.0058
12.74,0.5753,-0.067,10.0509,0.0325,-0.0406,-0.0136
12.76,0.4323,-0.0694,10.098,0.0139,-0.006,-0.0108
12.78,0.503,0.1818,9.9537,0.0447,-0.0104,-0.0082
12.8,0.4689,0.0071,9.8648,0.0343,-0.0178,0.0203
12.82,1.0222,0.4237,10.2114,0.0639,0.0165,0.0314
12.84,0.6935,-0.1011,10.2157,-0.0472,-0.054,-0.0047
12.86,0.5931,-0.1527,9.9949,0.0168,-0.0525,-0.0307
12.88,0.4369,-0.292,10.1584,0.0674,-0.0423,-0.0387
12.9,0.8596,0.1212,10.0729,0.2175,0.0403,-0.0276
12.92,0.4129,0.0562,9.2297,0.2639,0.0544,-0.01
12.94,0.5343,-0.0443,9.6427,0.2612,0.0944,-0.0066
12.96,0.5729,-0.0167,9.1852,0.147,0.0672,0.0021
12.98,0.4072,0.351,9.4193,-0.0531,-0.0594,0.1064
13.0,0.3676,0.2,9.0499,-0.4674,-0.3167,0.1785
13.02,0.0938,0.3327,9.0235,-0.7914,-0.4516,0.2397
13.04,-0.9223,-0.5158,9.3754,-0.9544,-0.1833,0.2078
13.06,-0.8917,-0.5482,11.48,-0.7808,0.1778,0.2015
13.08,-0.313,-0.3006,13.7176,-0.3023,0.5024,0.0823
13.1,0.7383,-0.757,12.8685,0.2639,0.523,-0.0307
13.12,1.7467,-0.4478,11.2498,0.7398,0.1908,-0.1773
13.14,1.9139,-0.2096,9.6777,1.0413,-0.171,-0.2363
13.16,1.4155,-0.1431,8.8339,0.8828,-0.4035,-0.2103
13.18,0.8064,-0.0734,8.9371,0.4686,-0.3761,-0.1776
13.2,0.6882,-0.2848,9.2354,0.0898,-0.0898,-0.0999
13.22,0.2979,-0.1608,9.3651,-0.1444,0.1088,-0.0528
13.24,-0.0063,0.101,9.6886,-0.2344,0.1441,0.0209
13.26,0.2157,0.1231,9.6416,-0.2326,0.1178,0.0396
13.28,0.0053,-0.3398,9.6411,-0.2078,-0.0385,0.0506
13.3,0.17,-0.1774,9.9839,-0.0481,-0.0335,0.0006
13.32,0.3843,0.0888,10.1343,0.0424,-0.03,0.0041
13.34,0.6718,-0.2159,10.0506,0.0878,-0.0262,0.0041
13.36,0.8978,-0.0641,10.1209,0.0161,0.0084,0.0168
13.38,0.3816,0.0129,9.7663,-0.0043,0.0108,-0.0014
13.4,0.4926,0.0666,9.8493,-0.0135,-0.0012,0.0139
13.42,0.2903,-0.2613,9.8366,0.0072,-0.0663,-0.0007
13.44,0.4477,0.181,9.9425,0.1314,-0.0443,-0.0312
13.46,0.3964,-0.3894,9.4766,0.1608,-0.0472,-0.0412
13.48,0.1903,-0.3518,9.3145,0.2379,0.0935,-0.0146
13.5,0.2954,-0.3714,9.2439,0.2246,0.1253,0.0087
13.52,0.2771,-0.6601,8.8841,0.0984,-0.0056,-0.0639
13.54,0.0827,-0.0087,9.2008,-0.1677,-0.1296,-0.0788
13.56,0.066,-0.3023,8.6484,-0.5382,-0.3256,-0.1942
13.58,-0.6938,-0.141,8.5918,-0.8555,-0.414,-0.2194
13.6,-0.7579,0.087,9.5241,-0.914,-0.147,-0.221
13.62,-0.8011,0.0603,11.4216,-0.6356,0.2568,-0.1478
13.64,0.2579,0.5389,13.0448,-0.1127,0.5024,-0.0084
13.66,1.2687,0.3681,12.5146,0.4239,0.4104,0.0991
13.68,1.3113,-0.1938,10.07,0.7936,0.041,0.1697
13.7,1.4782,0.0014,9.1203,0.9051,-0.2364,0.2241
13.72,1.3132,0.0821,8.9003,0.7367,-0.3579,0.1894
13.74,0.4745,-0.4711,8.4607,0.3448,-0.3126,0.1615
13.76,0.5584,-0.282,8.946,0.0912,-0.011,0.105
13.78,0.1272,-0.5747,9.0596,-0.1492,0.0892,0.047
13.8,0.303,-0.3151,9.2157,-0.2406,0.1606,0.0079
13.82,-0.1148,-0.2431,9.239,-0.1905,0.0604,-0.07
13.84,-0.1911,-0.4888,9.5226,-0.0969,0.0042,-0.011
13.86,0.1513,-0.4962,9.609,-0.0273,-0.0507,0.0106
13.88,0.3187,-0.0617,9.9178,0.0356,-0.0003,-0.0282
13.9,0.1721,-0.3634,9.9209,0.0238,-0.0414,0.0148
13.92,0.3884,-0.3083,9.5297,0.0271,-0.055,-0.005
13.94,0.0138,-0.5532,8.915,-0.0419,-0.075,-0.0085
13.96,0.2014,-0.0503,9.8316,-0.0378,-0.017,-0.0214
13.98,0.1027,-0.3743,9.5157,0.0366,-0.0192,-0.0223
14.0,0.5684,-0.2829,9.8439,0.0359,-0.0586,0.0121
14.02,0.5465,-0.4471,9.6006,0.153,-0.0099,-0.0127
14.04,0.5526,0.0121,9.663,0.2645,0.0521,-0.0329
14.06,0.5612,0.1858,9.307,0.3117,0.1346,-0.0072
14.08,-0.0642,-0.3007,8.959,0.1528,0.1152,-0.0009
14.1,0.1612,0.1073,8.8538,-0.0092,-0.0384,0.0537
14.12,-0.0551,0.023,8.5223,-0.3572,-0.2597,0.1566
14.14,-0.2215,-0.2742,8.6397,-0.7175,-0.411,0.2096
14.16,-0.7945,-0.216,9.0177,-0.8728,-0.2238,0.2183
14.18,-0.8909,-0.0855,10.7058,-0.8145,0.0743,0.1659
14.2,-0.5042,-0.9681,12.3662,-0.4168,0.428,0.0839
14.22,0.3378,-1.3822,13.0407,0.1817,0.512,-0.0205
14.24,1.6986,-0.2165,11.7817,0.6087,0.2373,-0.1486
14.26,1.8469,-0.5793,9.5253,0.9276,-0.1342,-0.221
14.28,0.9241,-0.2827,8.4864,0.8449,-0.3887,-0.2102
14.3,0.4513,-0.2987,8.906,0.5799,-0.3951,-0.1659
14.32,0.4454,0.0419,8.573,0.2169,-0.1664,-0.1081
14.34,0.2944,0.151,9.0075,-0.1186,0.0421,-0.0618
14.36,-0.0069,-0.4014,9.4191,-0.2261,0.1488,-0.0225
14.38,-0.3136,-0.3936,9.1811,-0.2961,0.0673,-0.0511
14.4,0.4919,-0.2113,9.526,-0.1629,0.017,0.027
14.42,-0.0202,-0.3047,9.6384,-0.1093,-0.0244,0.0197
14.44,0.482,-0.1472,9.8632,0.0167,-0.0186,0.0108
14.46,0.3865,-0.3083,9.9609,0.0151,-0.0063,0.0087
14.48,0.0681,-0.3675,9.826,0.0244,-0.012,0.0592
14.5,0.2193,0.0734,9.7304,0.026,-0.0029,0.0497
14.52,0.186,-0.2625,9.6081,-0.0292,-0.0727,-0.0018
14.54,0.6121,0.033,9.8603,-0.0203,0.0082,0.0419
14.56,-0.134,-0.3979,9.9446,-0.0331,-0.1021,0.0115
14.58,0.5517,-0.0116,9.766,0.0758,-0.0594,0.0121
14.6,0.4498,-0.3339,9.6177,0.1572,0.0303,0.0289
14.62,0.5487,-0.3759,9.2227,0.242,0.0818,0.0119
14.64,0.3978,-0.0844,9.5716,0.2673,0.1527,0.0319
14.66,0.3541,-0.2104,9.5321,0.1459,0.0913,-0.042
14.68,0.4346,-0.2591,9.2399,-0.1449,-0.1599,-0.0829
14.7,-0.0763,-0.1311,8.4528,-0.5351,-0.3449,-0.1355
14.72,-0.4535,0.06,8.9167,-0.8514,-0.4034,-0.1679
14.74,-0.988,0.1378,9.5976,-0.8691,-0.1605,-0.2088
14.76,-0.6185,0.2592,11.6016,-0.6919,0.2307,-0.1143
14.78,0.0299,0.4531,13.1728,-0.2046,0.5062,-0.0675
14.8,0.5819,-0.1128,12.3592,0.3815,0.4519,0.0554
14.82,1.8615,0.2747,11.1856,0.7913,0.1032,0.1898
14.84,1.7024,0.0681,9.0708,0.9625,-0.226,0.202
14.86,1.045,0.0499,8.8047,0.7895,-0.3907,0.2512
14.88,0.7337,-0.3853,8.7585,0.4119,-0.3263,0.1369
14.9,0.4226,-0.0382,9.3252,0.0658,-0.0512,0.1061
14.92,0.6379,-0.1128,9.1543,-0.1513,0.0772,0.0539
14.94,0.2123,-0.0508,9.4836,-0.2092,0.1639,-0.0139
14.96,0.2618,-0.0352,9.693,-0.1678,0.1097,-0.0465
14.98,0.0507,-0.2651,9.9049,-0.1856,-0.035,-0.0384
15.0,0.5336,-0.0559,10.1331,0.0052,-0.0572,-0.0426
15.02,0.3479,-0.0579,9.7719,-0.0294,-0.0252,-0.039
15.04,0.4407,0.1102,9.926,-0.0217,-0.0386,0.017
15.06,0.3647,-0.1617,9.9711,0.0181,-0.0323,-0.0109
15.08,0.4592,-0.2009,10.0861,0.0148,-0.0166,-0.0046
15.1,0.3522,0.053,10.0406,0.0557,-0.0079,-0.0065
15.12,0.4696,0.1175,9.6584,0.0445,-0.0129,-0.0706
15.14,0.4906,0.318,9.9108,0.1973,0.0595,-0.0028
15.16,0.7841,0.0508,9.9061,0.2088,0.1041,0.0135
15.18,0.4068,0.1254,9.2546,0.1415,0.0744,0.0355
15.2,0.2175,0.0428,9.1207,-0.0533,-0.0536,0.0209
15.22,0.2086,-0.1516,9.3629,-0.2582,-0.2002,0.1054
15.24,-0.0431,-0.0034,9.0996,-0.5736,-0.332,0.1968
15.26,-0.5467,-0.3307,9.2303,-0.729,-0.1707,0.1634
15.28,-0.4796,-0.5031,10.5014,-0.7202,0.0053,0.151
15.3,-0.456,-0.2599,11.718,-0.3618,0.3157,0.063
15.32,0.1906,-0.3475,12.402,0.1022,0.3719,-0.0386
15.34,1.2722,-0.4471,11.2294,0.4941,0.1806,-0.0853
15.36,1.1295,-0.764,9.4756,0.6917,-0.0979,-0.1694
15.38,1.4457,-0.2455,9.1989,0.7141,-0.2693,-0.1479
15.4,0.4776,-0.3807,9.1077,0.4674,-0.2802,-0.1356
15.42,0.7406,0.1394,9.6227,0.2205,-0.1331,-0.1044
15.44,0.2005,-0.1334,9.5283,-0.0743,0.0247,-0.0281
15.46,0.4826,-0.0872,9.662,-0.1634,0.1386,-0.0139
15.48,0.2463,0.0362,9.639,-0.1896,0.074,-0.0045
15.5,-0.055,-0.1717,9.5292,-0.1632,0.0058,-0.0415
15.52,0.3147,0.332,9.8002,-0.0715,-0.0182,0.0217
15.54,0.1983,0.1013,10.0849,-0.0084,-0.0384,-0.0242
15.56,0.8623,-0.1776,9.9705,0.0164,-0.0938,0.0372
15.58,0.1418,-0.203,9.8651,-0.0243,-0.0635,0.0082
15.6,0.4831,0.2108,10.1161,0.0955,-0.0226,0.0123
15.62,0.3963,-0.0704,10.0427,0.1955,0.0195,0.0412
15.64,0.8751,-0.0087,9.7676,0.3017,0.1186,0.0536
15.66,0.047,-0.3121,9.5239,0.2748,0.1614,0.0021
15.68,0.262,-0.5604,9.0595,0.2389,0.1142,-0.0325
15.7,0.2128,-0.4112,9.1216,-0.0442,-0.0214,-0.0764
15.72,0.2822,-0.2946,8.9886,-0.3473,-0.2218,-0.1744
15.74,-0.4899,-0.1628,8.6207,-0.7427,-0.4668,-0.1835
15.76,-0.8332,-0.203,9.282,-0.9681,-0.3019,-0.1829
15.78,-1.0383,-0.0809,10.6121,-0.8622,0.0881,-0.1807
15.8,-1.1334,0.2981,12.7211,-0.4712,0.4372,-0.116
15.82,0.9945,0.4705,14.0651,0.1516,0.5781,0.0331
15.84,1.4106,0.0223,11.4871,0.7393,0.2842,0.176
15.86,1.5341,-0.1916,9.1925,0.9715,-0.1645,0.2328
15.88,1.206,-0.1035,8.5595,0.9477,-0.4094,0.2217
15.9,0.5248,-0.0947,8.9328,0.6591,-0.3569,0.2093
15.92,0.0095,-0.6059,8.5704,0.2398,-0.2001,0.1274
15.94,0.3134,-0.2953,8.857,-0.1213,0.0303,0.0644
15.96,0.158,-0.1673,9.2774,-0.2301,0.1698,0.0196
15.98,0.0671,-0.3327,9.8088,-0.2312,0.1345,-0.0446
16.0,0.0222,-0.0533,9.5944,-0.1741,0.0617,-0.0445
16.02,0.0757,-0.5902,9.6375,-0.1438,-0.0211,-0.042
16.04,0.1482,-0.192,9.6786,-0.063,-0.0677,-0.0517
16.06,-0.0054,-0.1531,9.7321,-0.0114,-0.0502,0.0022
16.08,0.4675,-0.1335,9.6143,0.0003,-0.0386,-0.0572
16.1,0.0132,0.0103,9.9178,0.0429,0.0043,-0.0228
16.12,0.1437,-0.1,9.9288,0.0802,-0.057,-0.0091
16.14,0.511,-0.2505,9.4762,0.1573,-0.0053,-0.0345
16.16,0.4846,-0.1714,9.3718,0.1956,0.026,-0.0269
16.18,0.5271,0.0079,9.139,0.2703,0.1596,-0.0056
16.2,0.4228,0.2129,9.1836,0.2013,0.1389,0.0771
16.22,0.2861,-0.1707,8.9646,-0.0663,-0.0681,0.1033
16.24,-0.2035,-0.1794,8.6285,-0.3903,-0.2693,0.123
16.26,-0.1219,-0.1968,8.9194,-0.6663,-0.3776,0.2283
16.28,-0.8257,-0.7563,8.7287,-0.9522,-0.2728,0.1817
16.3,-1.3833,-0.887,10.2853,-0.8546,0.119,0.1145
16.32,-0.7708,-0.8855,12.3016,-0.4113,0.4344,0.0851
16.34,0.4013,-0.6795,12.9166,0.1036,0.4546,-0.0428
16.36,1.5485,-0.7642,11.2893,0.6843,0.2466,-0.1287
16.38,1.5858,-0.38,9.5244,0.8606,-0.1449,-0.2081
16.4,0.8151,-0.2002,8.7253,0.8544,-0.4146,-0.2254
16.42,0.3276,-0.422,8.3606,0.5322,-0.391,-0.1812
16.44,0.1817,-0.3062,8.7234,0.1913,-0.1591,-0.1343
16.46,0.0539,0.4328,9.1338,-0.0821,0.095,-0.0351
16.48,0.1044,0.093,9.3048,-0.2311,0.1305,-0.036
16.5,-0.2599,-0.2636,9.5234,-0.2196,0.1233,-0.0212
16.52,-0.0429,-0.2931,9.4141,-0.2005,-0.0452,0.0048
16.54,0.213,-0.213,9.9437,-0.0764,-0.0272,0.0681
16.56,0.4819,-0.0059,9.9744,-0.011,-0.0108,0.0317
16.58,0.3671,-0.1996,9.6314,0.0081,-0.0124,-0.0142
16.6,0.0773,-0.3342,9.4773,0.0046,-0.0519,-0.0457
16.62,0.1826,-0.1267,9.8637,0.0218,-0.0328,-0.0206
16.64,-0.0161,0.0287,10.1257,0.0157,-0.032,0.0292
16.66,0.1322,-0.2066,9.9717,0.0116,-0.0134,0.0252
16.68,0.2277,-0.1683,9.5451,0.0103,-0.0465,0.022
16.7,0.6679,0.0063,9.5091,0.141,0.0291,0.0597
16.72,0.8557,-0.2554,9.1845,0.1626,0.086,0.008
16.74,0.328,-0.4497,9.1679,0.1969,0.0811,-0.0076
16.76,0.6062,-0.267,9.2115,0.1095,0.0702,-0.0529
16.78,0.1725,-0.3826,9.0627,-0.1753,-0.121,-0.144
16.8,0.1135,-0.1663,8.7279,-0.4731,-0.293,-0.1694
16.82,-0.4531,0.249,8.9326,-0.7788,-0.3536,-0.1667
16.84,-0.839,-0.321,9.5685,-0.882,-0.1711,-0.1843
16.86,-0.3527,0.4047,11.5795,-0.6164,0.1904,-0.1391
16.88,-0.2238,0.1425,12.6627,-0.1783,0.4311,-0.05
16.9,0.6708,-0.0318,12.045,0.3175,0.4056,0.1038
16.92,1.8721,0.3381,10.47,0.6512,0.0828,0.1283
16.94,1.3823,-0.3874,8.9229,0.8308,-0.2669,0.1608
16.96,0.9371,-0.3274,9.0233,0.6671,-0.3588,0.1664
16.98,0.5122,-0.225,8.7664,0.328,-0.2467,0.1205
17.0,0.633,-0.4118,9.3051,0.045,-0.0309,0.1013
17.02,0.2344,-0.1124,9.6708,-0.1197,0.1544,0.0692
17.04,0.5196,0.0657,9.8155,-0.1766,0.1255,-0.0264
17.06,0.6268,-0.1083,9.7601,-0.1985,0.1165,-0.0502
17.08,0.0242,-0.2517,9.7384,-0.0892,0.015,0.0132
17.1,0.0987,-0.1646,9.7865,-0.0613,-0.0527,0.0005
17.12,0.226,-0.0051,9.9571,-0.0151,-0.0352,-0.0517
17.14,0.5603,-0.2645,9.9552,0.0149,-0.0097,0.0185
17.16,0.3194,0.0471,9.8728,0.0135,-0.0291,0.0118
17.18,0.6669,0.1569,10.2037,0.0517,-0.0043,0.0133
17.2,0.6014,-0.1455,10.2943,0.0273,-0.0223,-0.0084
17.22,0.5085,0.1837,9.9187,0.0512,-0.0157,-0.0514
17.24,0.5137,0.171,9.6204,0.0737,-0.0405,-0.0599
17.26,0.7965,0.1148,9.6982,0.1931,0.0775,-0.0199
17.28,0.0533,-0.2047,9.7935,0.1923,0.0946,-0.0207
17.3,0.6596,0.1752,9.3359,0.0933,0.0492,0.0404
17.32,0.514,0.1334,9.0012,-0.1502,-0.0887,0.0667
17.34,0.4838,-0.2748,9.5377,-0.3817,-0.2367,0.126
17.36,-0.4674,-0.0774,9.4794,-0.6205,-0.3191,0.1767
17.38,-0.4841,-0.3687,9.5354,-0.7839,-0.1419,0.1223
17.4,-0.2676,-0.1104,11.1498,-0.5912,0.1968,0.1188
17.42,-0.108,-0.5785,12.1761,-0.1541,0.4324,0.0847
17.44,0.9109,-0.2534,12.1522,0.268,0.3829,-0.0539
17.46,1.6405,-0.2566,10.8781,0.5827,0.1102,-0.1156
17.48,1.6494,-0.1428,9.5412,0.7544,-0.1669,-0.1365
17.5,1.0075,-0.0752,9.0865,0.5923,-0.3007,-0.1398
17.52,0.5097,0.002,9.2835,0.3014,-0.2378,-0.0818
17.54,0.5689,0.1555,9.7953,0.1207,-0.0248,-0.0901
17.56,0.2814,0.4733,9.3712,-0.1447,0.0904,-0.0183
17.58,0.3551,0.1105,9.5863,-0.1591,0.0849,-0.0269
17.6,0.1408,-0.1495,9.8716,-0.1678,0.047,-0.0031
17.62,0.368,-0.1484,9.7591,-0.1303,0.0151,0.01
17.64,0.4252,-0.0932,10.0595,-0.0443,-0.0174,-0.022
17.66,0.2501,0.0861,9.6519,-0.0806,-0.072,-0.0071
17.68,0.7396,0.2167,10.2944,0.0181,-0.0053,0.0048
17.7,0.3711,0.0288,10.1669,-0.0057,-0.0375,0.0382
17.72,0.5516,0.0018,10.1651,0.0487,-0.024,0.0221
17.74,0.4872,-0.2308,9.7643,0.1257,-0.0159,-0.0077
17.76,0.5402,-0.0999,9.5344,0.1736,0.0956,0.0131
17.78,0.8753,-0.1829,9.7094,0.302,0.1782,0.038
17.8,0.4639,-0.4149,9.2683,0.1741,0.1431,-0.0009
17.82,0.7101,-0.3598,9.0632,-0.0754,-0.0206,-0.1047
17.84,-0.2223,-0.5461,8.5841,-0.4359,-0.2404,-0.1167
17.86,-0.1595,-0.1567,8.9173,-0.6602,-0.3553,-0.2123
17.88,-0.6272,0.1718,8.9972,-0.9191,-0.3312,-0.2388
17.9,-1.155,0.1369,10.4927,-0.8254,0.0458,-0.1357
17.92,0.032,0.9125,13.2011,-0.3762,0.4334,-0.0847
17.94,0.3943,0.2423,12.7914,0.0909,0.5003,0.0412
17.96,1.7422,0.1513,11.9438,0.6299,0.289,0.1353
17.98,1.5593,0.0726,9.6221,0.8541,-0.1199,0.1864
18.0,1.0713,0.0475,8.8755,0.7923,-0.3288,0.1641
18.02,0.7294,0.0447,8.7534,0.5484,-0.3211,0.1581
18.04,0.271,-0.6041,8.7095,0.1589,-0.1728,0.1474
18.06,0.253,-0.0214,8.8941,-0.0744,0.0599,0.0296
18.08,-0.2823,-0.5939,9.2558,-0.2652,0.124,-0.0112
18.1,0.3671,-0.0655,9.7259,-0.2311,0.1721,0.0118
18.12,-0.0377,-0.3308,9.6227,-0.2105,0.0287,-0.0244
18.14,0.4804,0.0453,10.0483,-0.0501,0.041,-0.0156
18.16,0.2271,-0.1854,10.111,-0.0011,-0.009,-0.0134
18.18,0.7073,-0.1033,10.0961,0.0558,0.0272,-0.0015
18.2,0.2625,-0.5203,9.4441,0.0221,0.001,-0.0367
18.22,0.463,0.1503,10.1533,0.0285,0.0444,0.0171
18.24,0.3159,-0.2151,9.8677,-0.0451,0.0296,0.0247
18.26,0.5469,-0.4267,9.9401,-0.041,-0.0658,0.0118
18.28,0.3754,-0.1146,9.5371,0.0398,-0.0016,-0.0848
18.3,0.4983,-0.2302,9.6566,0.1218,0.0596,0.0053
18.32,0.524,0.1266,9.5434,0.1833,0.0452,-0.0363
18.34,0.2604,0.1597,9.0509,0.2613,0.1267,-0.0014
18.36,0.3408,-0.1732,9.0637,0.1617,0.1508,-0.0124
18.38,0.1504,0.1544,8.9474,-0.023,-0.0159,0.0848
18.4,0.1016,0.2834,9.0057,-0.2916,-0.2127,0.1522
18.42,-0.3885,-0.3639,8.5676,-0.7217,-0.3979,0.1766
18.44,-0.8207,-0.3809,9.1104,-0.9289,-0.3678,0.248
18.46,-0.9004,-0.4927,9.9558,-0.911,0.0353,0.1629
18.48,-0.7135,-0.4605,12.4135,-0.5148,0.4204,0.1457
18.5,0.3799,-0.6083,13.5513,0.0106,0.538,0.016
18.52,1.0217,-0.5655,11.8009,0.5365,0.3844,-0.0782
18.54,1.5861,-0.7015,9.9091,0.8939,-0.0366,-0.2016
18.56,1.5358,-0.4925,8.4047,0.9335,-0.3835,-0.2477
18.58,0.7093,0.1336,8.9089,0.6651,-0.3541,-0.2
18.6,0.273,0.174,8.7146,0.2653,-0.1808,-0.1411
18.62,0.2708,-0.0582,8.9802,0.0005,0.0239,-0.0418
18.64,0.2428,-0.0651,9.0802,-0.2221,0.1562,-0.0046
18.66,-0.135,-0.0414,9.1731,-0.3107,0.1204,-0.0015
18.68,0.157,-0.1126,9.6757,-0.2034,0.0469,0.0246
18.7,0.0831,-0.0828,9.7107,-0.1046,-0.0094,0.0304
18.72,-0.0472,0.0139,9.8576,-0.0354,-0.0243,0.0032
18.74,0.3575,-0.4713,9.7201,0.044,-0.0234,0.0055
18.76,0.4561,-0.3117,9.473,0.0209,0.0332,-0.0478
18.78,0.0435,-0.3033,9.078,-0.056,-0.0243,-0.0596
18.8,0.4896,0.1153,10.0475,0.0114,-0.0087,0.0101
18.82,0.3437,-0.1333,9.7724,-0.0341,-0.0165,0.0214
18.84,0.3465,-0.2263,9.9195,-0.0354,-0.0293,-0.0166
18.86,0.44,-0.1416,10.2117,0.0453,-0.0205,0.0307
18.88,0.301,-0.2754,9.6523,0.0485,-0.0301,0.0327
18.9,0.835,-0.0608,9.3244,0.2188,0.0984,0.0571
18.92,0.7014,-0.1875,9.8144,0.2081,0.1502,0.0116
18.94,0.4255,-0.0862,9.4381,0.1201,0.1408,0.0177
18.96,0.3052,0.3004,9.5122,-0.0222,0.0104,-0.0825
18.98,0.0098,-0.2127,9.0242,-0.3229,-0.1899,-0.0869
19.0,0.3328,-0.0027,9.212,-0.615,-0.3259,-0.1462
19.02,-0.3254,-0.0412,9.0785,-0.8015,-0.2197,-0.1494
19.04,-0.995,0.1641,10.2708,-0.7431,0.0966,-0.1165
19.06,-0.8547,0.3744,11.7434,-0.4626,0.3197,-0.0815
19.08,0.7763,0.3413,12.8723,0.0447,0.4342,0.0338
19.1,0.861,-0.3348,11.1796,0.4624,0.2315,0.0645
19.12,1.5196,0.3328,9.5668,0.7357,-0.0929,0.1647
19.14,1.0854,-0.1523,9.1018,0.7443,-0.2877,0.1901
19.16,0.8567,0.1578,9.1366,0.5581,-0.3024,0.1841
19.18,0.4377,-0.2071,8.9767,0.234,-0.1544,0.1244
19.2,0.8924,0.0143,9.5519,-0.0089,0.0671,0.0549
19.22,0.1168,-0.3677,9.2636,-0.1385,0.1545,0.0222
19.24,-0.1217,-0.2667,9.5829,-0.2132,0.0869,0.01
19.26,0.157,-0.1377,9.5696,-0.2078,0.0114,-0.0546
19.28,0.2563,-0.0749,10.0169,-0.1088,0.0066,-0.0334
19.3,0.1681,-0.1165,9.6674,-0.0033,-0.001,-0.026
19.32,0.2603,-0.2372,9.786,-0.0644,-0.0561,-0.0192
19.34,0.4956,-0.0988,9.9503,-0.0191,0.0632,-0.0131
19.36,0.2937,0.054,10.1479,-0.0115,0.0089,-0.0307
19.38,0.6739,0.2049,10.2232,0.0579,-0.0166,-0.041
19.4,0.3404,0.0754,9.6143,0.1028,-0.0126,-0.0389
19.42,0.7072,-0.0658,10.0835,0.1481,0.0729,-0.0399
19.44,0.1854,-0.1113,9.3797,0.1831,0.1253,-0.0506
19.46,0.4962,0.1629,9.4878,0.1607,0.1263,-0.0095
19.48,0.4968,0.5108,9.2654,0.0565,0.0353,0.0595
19.5,0.3112,-0.3935,9.0337,-0.3229,-0.193,0.1299
19.52,0.0554,-0.3103,8.5296,-0.6262,-0.3376,0.1867
19.54,-0.49,-0.0341,9.6063,-0.7697,-0.265,0.1844
19.56,-0.6117,-0.2137,10.1264,-0.8058,-0.0178,0.1438
19.58,-0.6051,-0.6225,11.7322,-0.4426,0.3305,0.096
19.6,0.6064,-0.2518,13.1538,0.0031,0.4456,0.0336
19.62,1.5031,-0.3338,11.8988,0.4839,0.3479,-0.0953
19.64,1.8011,-0.2601,9.9399,0.7325,-0.0385,-0.1459
19.66,0.9855,0.0216,9.2245,0.7953,-0.264,-0.1608
19.68,0.8911,0.2474,9.3168,0.5623,-0.3014,-0.1176
19.7,0.6683,-0.2065,8.9543,0.2068,-0.17,-0.1298
19.72,0.44,0.5271,9.2984,0.014,0.0469,-0.02
19.74,0.5734,0.2134,9.5939,-0.1682,0.1554,0.0146
19.76,0.1136,-0.1298,9.5018,-0.245,0.0928,0.0283
19.78,-0.1286,-0.044,10.0357,-0.1542,0.0644,0.0189
19.8,-0.1937,-0.0029,10.0152,-0.1318,0.007,0.0104
19.82,0.4844,-0.0966,10.2294,0.0107,-0.0049,0.0304
19.84,0.2292,0.0441,10.1989,-0.0184,-0.0348,0.0205
19.86,0.3365,0.0417,9.7012,0.0128,-0.0131,0.0194
19.88,0.3458,0.2316,10.0802,0.0177,0.0342,0.0385
19.9,0.178,-0.1183,10.0187,-0.0049,0.0257,-0.0091
19.92,0.5943,-0.0387,9.6707,-0.046,-0.003,-0.0568
19.94,0.3494,0.1656,9.7005,-0.0219,-0.0037,0.0159
19.96,0.524,-0.0966,10.1009,-0.0156,-0.0417,-0.0135
19.98,0.0708,-0.0806,10.0153,-0.0002,-0.0209,0.0023
20.0,0.7004,-0.0671,9.8184,0.1153,-0.0134,0.0518
20.02,0.4998,-0.2682,9.6552,0.1463,0.0457,0.0231
20.04,0.6219,-0.5924,9.2172,0.2129,0.0731,-0.0141
20.06,0.3119,-0.3385,9.4256,0.1965,0.1653,-0.019
20.08,0.5418,-0.0176,9.4909,0.0607,0.098,-0.0388
20.1,0.2829,-0.0622,9.1186,-0.2788,-0.175,-0.148
20.12,0.0987,0.0779,8.9918,-0.6253,-0.3764,-0.1632
20.14,-0.7396,0.0307,8.9955,-0.8668,-0.2902,-0.2266
20.16,-0.9785,0.429,10.1962,-0.8572,-0.0334,-0.1697
20.18,-0.4663,0.6407,11.9737,-0.5107,0.3218,-0.123
20.2,0.3615,0.1224,12.6463,-0.112,0.443,-0.0126
20.22,1.1508,0.2037,11.6797,0.479,0.3658,0.1538
20.24,1.5883,0.1974,10.3937,0.8361,0.0178,0.1624
20.26,1.2037,-0.2004,9.1077,0.8733,-0.3023,0.2189
20.28,0.8926,-0.4131,8.6337,0.636,-0.4176,0.1834
20.3,0.7599,-0.1685,9.2921,0.339,-0.2078,0.147
20.32,0.4056,-0.253,9.1627,-0.0263,-0.0189,0.0785
20.34,0.221,-0.4038,9.2812,-0.1702,0.1449,0.0214
20.36,0.3321,-0.2343,9.4857,-0.2452,0.1239,-0.0304
20.38,0.2766,-0.2044,9.5879,-0.1923,0.0661,0.0259
20.4,0.3074,0.3085,10.0835,-0.0604,0.0468,-0.0443
20.42,0.2096,-0.2206,9.8893,-0.044,-0.0027,-0.017
20.44,0.2675,-0.1323,9.9112,0.0007,0.0295,-0.0329
20.46,0.3565,0.027,9.9593,0.0285,0.0118,0.0799
20.48,0.2938,-0.0317,9.8381,-0.0023,-0.0166,-0.0034
20.5,-0.0151,-0.3776,9.3339,-0.0392,0.0308,-0.0054
20.52,-0.0868,-0.2841,9.6691,-0.0533,0.0349,0.0073
20.54,0.0222,-0.2863,9.5383,-0.0301,-0.0243,-0.0698
20.56,0.3249,0.2535,9.9684,0.0335,-0.052,-0.0153
20.58,0.4064,-0.0237,10.0477,0.1446,0.0256,-0.0384
20.6,0.0221,-0.1624,9.3802,0.1488,0.0933,-0.0486
20.62,0.1847,0.0003,9.3093,0.2709,0.1383,-0.0112
20.64,0.6748,0.0455,9.2632,0.1861,0.1712,-0.004
20.66,0.1756,0.1052,8.8763,-0.0067,0.0025,0.0338
20.68,-0.1195,-0.4451,8.3327,-0.3757,-0.276,0.1436
20.7,-0.3474,-0.1836,8.6825,-0.7167,-0.3771,0.1886
20.72,-0.4568,-0.3729,9.1903,-0.9259,-0.3378,0.2132
20.74,-1.2485,-0.5915,9.8886,-0.9239,0.0111,0.215
20.76,-0.5688,-0.7653,11.9505,-0.583,0.3548,0.0695
20.78,0.6088,-0.4336,13.4238,0.0622,0.6096,0.0069
20.8,1.365,-0.6073,11.6885,0.5887,0.3649,-0.1242
20.82,1.4272,-0.4719,9.622,0.8742,-0.0721,-0.2381
20.84,1.0404,-0.5015,8.8391,0.8923,-0.3599,-0.2262
20.86,0.7416,0.0362,9.101,0.6337,-0.3073,-0.1552
20.88,0.2561,-0.2106,8.9831,0.2861,-0.156,-0.1288
20.9,0.1051,-0.5094,8.5773,-0.0812,-0.0497,-0.1101
20.92,-0.1888,-0.5352,9.1818,-0.2236,0.1708,-0.011
20.94,0.0329,-0.0776,9.365,-0.2601,0.1515,-0.0018
20.96,-0.1597,-0.3787,9.2301,-0.2384,0.0417,0.0392
20.98,-0.299,-0.234,9.8518,-0.1474,0.0055,-0.0032
21.0,0.2317,-0.0853,10.0474,-0.0745,-0.0524,0.0273
21.02,0.3454,-0.2226,9.7548,-0.0516,-0.0987,0.026
21.04,0.3465,-0.1849,10.0381,0.094,-0.0196,0.0572
21.06,0.2036,-0.4358,9.6765,0.1571,0.0191,0.0387
21.08,0.4408,-0.4115,9.4474,0.2125,0.0326,0.0279
21.1,0.5375,-0.1271,9.1887,0.2327,0.1445,0.0036
21.12,0.5665,-0.2187,9.288,0.1325,0.1113,-0.0606
21.14,-0.0337,-0.1944,9.2178,-0.0767,-0.0229,-0.0842
21.16,-0.0008,-0.3441,8.8837,-0.4178,-0.2564,-0.1343
21.18,-0.466,-0.2447,8.5892,-0.787,-0.3752,-0.2014
21.2,-0.7692,0.113,9.3777,-0.9205,-0.2374,-0.2333
21.22,-0.8527,0.078,10.3885,-0.7896,0.1362,-0.152
21.24,-0.3495,0.403,12.6407,-0.412,0.42,-0.0699
21.26,0.7428,0.2607,12.4625,0.134,0.5109,0.0853
21.28,1.1615,0.0888,11.1334,0.6561,0.2525,0.1304
21.3,1.4732,-0.0358,9.6968,0.8963,-0.1265,0.2226
21.32,1.1821,-0.435,8.5832,0.8102,-0.3686,0.2193
21.34,0.501,0.124,9.0408,0.517,-0.3235,0.1967
21.36,0.4217,-0.2488,9.1824,0.154,-0.1039,0.0968
21.38,0.3847,-0.0038,9.4221,-0.1248,0.0375,0.0476
21.4,0.0716,-0.3231,9.3365,-0.2308,0.1724,0.0036
21.42,0.2856,0.0605,9.9165,-0.1778,0.1484,0.0099
21.44,0.3513,0.0132,9.7114,-0.1354,0.054,-0.011
21.46,0.127,-0.0045,9.9813,-0.086,-0.0159,-0.016
21.48,0.2782,0.2572,10.11,-0.0118,-0.0043,-0.0177
21.5,0.2771,-0.248,10.0013,-0.0069,0.043,-0.0028
21.52,0.46,-0.0309,9.9625,-0.0253,-0.0209,-0.019
21.54,0.5311,0.0342,10.1149,0.038,0.0311,0.0125
21.56,0.2076,-0.2583,9.7777,-0.0573,0.0021,0.0082
21.58,0.5169,-0.3306,10.0564,-0.0369,-0.0319,-0.0038
21.6,0.6493,0.0203,10.3764,0.0838,-0.0113,0.0264
21.62,0.6671,-0.1334,9.8491,0.0873,0.0069,-0.0329
21.64,0.4679,0.0805,9.8132,0.1471,0.0966,-0.0766
21.66,0.7103,0.0037,9.4378,0.2192,0.1567,-0.0274
21.68,0.6268,-0.0677,9.3689,0.1649,0.109,0.0024
21.7,0.1086,-0.3616,9.1488,-0.1162,-0.052,0.0921
21.72,0.1209,-0.0024,9.2416,-0.3965,-0.2481,0.1553
21.74,-0.052,0.0369,9.1941,-0.7514,-0.3552,0.208
21.76,-0.6336,-0.3018,9.3944,-0.8812,-0.2328,0.2578
21.78,-0.7618,-0.255,10.7931,-0.8164,0.085,0.1146
21.8,-0.1699,-0.3312,12.6483,-0.3719,0.4476,0.1206
21.82,0.861,-0.1469,13.429,0.1919,0.5181,-0.0904
21.84,1.2965,-0.1987,11.3097,0.6496,0.2772,-0.1069
21.86,1.8802,0.021,10.072,0.9244,-0.0731,-0.2095
21.88,1.2808,0.3191,9.0909,0.8169,-0.3572,-0.2544
21.9,0.6843,0.1396,9.319,0.5028,-0.3459,-0.1991
21.92,0.3405,-0.0673,9.1328,0.1437,-0.138,-0.1252
21.94,0.5842,0.176,9.6588,-0.0828,0.0914,-0.0665
21.96,0.3473,0.3938,9.845,-0.2134,0.2221,0.0258
21.98,0.391,0.1914,9.4948,-0.2491,0.1355,0.034
22.0,0.0908,0.0166,9.9409,-0.1468,0.0491,0.0585
22.02,0.1462,-0.062,10.0155,-0.0755,-0.0038,0.0468
22.04,0.0778,0.179,9.7281,-0.0525,-0.0448,0.0113
22.06,0.536,-0.5179,9.8141,-0.0315,-0.047,-0.0166
22.08,0.4838,-0.1101,10.0121,0.006,-0.0383,0.0074
22.1,0.3197,-0.1752,9.8395,0.0041,-0.0241,0.0324
22.12,0.7175,0.3171,10.2228,0.0944,0.1025,0.045
22.14,0.2635,-0.0598,9.7924,-0.0645,-0.0029,-0.0087
22.16,0.1833,0.0872,10.1043,-0.0265,0.0145,-0.0345
22.18,0.5239,-0.3167,10.1201,-0.0057,0.0013,0.0299
22.2,0.2508,-0.2442,9.8341,-0.03,-0.0556,-0.025
22.22,0.7469,-0.0987,9.8714,0.0891,0.0149,0.022
22.24,0.4963,0.0421,9.9526,0.1603,0.0809,0.0716
22.26,0.3573,-0.4916,9.2755,0.2321,0.0815,0.024
22.28,0.652,-0.1511,9.6102,0.2349,0.1672,0.006
22.3,0.112,0.0498,9.1795,0.0544,0.0779,-0.0386
22.32,0.4756,-0.0548,9.3787,-0.2061,-0.1325,-0.1343
22.34,-0.2397,-0.1696,8.9569,-0.6566,-0.344,-0.1632
22.36,-0.7508,-0.1849,8.8507,-0.9477,-0.3644,-0.239
22.38,-1.164,0.0576,9.8028,-0.9321,-0.0738,-0.1945
22.4,-0.5453,0.0998,11.7868,-0.656,0.3544,-0.1309
22.42,0.3283,0.4812,13.222,-0.0366,0.585,0.0228
22.44,1.1122,-0.1624,12.1356,0.4902,0.3784,0.145
22.46,1.8803,0.2833,10.6371,0.8681,0.0366,0.1845
22.48,1.2647,-0.1785,8.783,0.8667,-0.2874,0.2167
22.5,0.6374,-0.1664,8.8983,0.7185,-0.3921,0.2061
22.52,0.8645,-0.0625,9.2331,0.385,-0.191,0.1917
22.54,0.3404,-0.125,9.3495,0.0038,0.0332,0.088
22.56,0.1386,-0.1359,9.2071,-0.2131,0.1526,0.0202
22.58,0.3212,-0.1003,9.3303,-0.259,0.135,-0.035
22.6,0.0714,-0.2153,9.5016,-0.2227,0.0307,0.0112
22.62,0.3065,-0.1782,9.6926,-0.1255,0.0426,-0.0143
22.64,0.2265,-0.0715,10.3242,0.0064,-0.0058,-0.0068
22.66,0.062,-0.5448,9.6312,-0.0212,-0.046,-0.043
22.68,0.3863,-0.4033,10.0639,0.0046,0.0345,0.0042
22.7,0.2124,-0.2688,9.7166,-0.0362,-0.0167,-0.0082
22.72,0.1692,-0.465,9.7652,0.0152,0.0046,-0.0193
22.74,0.0153,-0.3851,9.8406,0.0022,-0.0396,0.0194
22.76,0.3182,0.0561,9.7383,0.0472,-0.0219,-0.006
22.78,0.1027,-0.0315,9.3716,0.1499,0.0357,-0.0566
22.8,0.4382,-0.0701,9.2458,0.2172,0.1376,0.0175
22.82,0.2139,-0.1192,9.3453,0.1988,0.1544,-0.0108
22.84,0.2132,-0.1905,8.9716,0.0154,0.0527,0.0721
22.86,-0.0328,-0.2328,8.8446,-0.2962,-0.1324,0.1018
22.88,-0.2795,-0.1572,8.9547,-0.5704,-0.3224,0.2053
22.9,-0.4997,-0.2239,9.0338,-0.8079,-0.2822,0.1776
22.92,-1.0864,-0.5361,9.6072,-0.8963,-0.0929,0.2092
22.94,-0.6766,-0.2972,11.4617,-0.6272,0.3154,0.1053
22.96,-0.1765,-0.9375,12.2773,-0.1242,0.4899,0.0082
22.98,0.9188,-0.4805,11.9668,0.3925,0.3444,-0.081
23.0,1.1602,-0.3965,10.0891,0.759,0.057,-0.1743
23.02,1.216,-0.6065,8.9044,0.8324,-0.227,-0.1796
23.04,0.9012,-0.1773,8.9869,0.6668,-0.313,-0.202
23.06,0.3288,-0.1968,8.9251,0.3348,-0.2286,-0.1302
23.08,-0.1201,-0.3397,8.6738,0.0002,-0.0073,-0.0918
23.1,0.0115,-0.0756,9.0403,-0.25,0.0895,-0.0718
23.12,-0.1066,-0.0743,9.0279,-0.2473,0.1383,-0.0369
23.14,0.373,0.1006,9.5208,-0.1797,0.0854,0.0353
23.16,0.0129,0.2048,9.9175,-0.0811,0.0344,-0.0035
23.18,0.2655,-0.2788,10.0228,-0.076,0.0017,0.0431
23.2,0.2536,-0.1274,9.9522,0.0034,0.0268,0.001
23.22,0.7547,0.0275,10.2297,-0.001,0.0388,0.0102
23.24,0.1278,-0.3125,10.0429,0.0185,0.0213,0.0052
23.26,0.4175,-0.0051,9.848,-0.0034,0.0158,-0.0291
23.28,0.4667,-0.334,9.6555,0.0872,-0.0246,-0.0181
23.3,0.8283,0.0237,10.2816,0.2391,0.1163,0.0565
23.32,0.7687,0.2498,10.0007,0.3169,0.1404,-0.0196
23.34,0.0885,-0.9225,8.5791,0.1497,0.1582,-0.02
23.36,0.2239,-0.2334,9.3876,0.062,0.1028,-0.0612
23.38,0.1686,-0.4651,8.9374,-0.2775,-0.1547,-0.0847
23.4,-0.0154,-0.4048,8.6525,-0.6433,-0.3839,-0.1884
23.42,-0.9723,-0.4327,8.3818,-1.042,-0.3718,-0.226
23.44,-0.9189,-0.1237,9.3415,-1.0367,-0.0934,-0.2577
23.46,-0.9854,0.1048,11.4341,-0.7513,0.3495,-0.1724
23.48,0.0514,0.1979,13.0135,-0.144,0.6041,0.0005
23.5,0.9641,0.1916,12.4303,0.4544,0.4291,0.1472
23.52,1.6726,0.2207,10.5363,0.8573,0.0919,0.1886
23.54,1.6264,0.3063,9.3717,1.0424,-0.2642,0.234
23.56,0.8469,-0.1247,8.9551,0.8219,-0.4019,0.2723
23.58,0.2711,-0.3673,8.5984,0.3379,-0.3056,0.1794
23.6,0.5477,-0.4558,9.258,0.0685,0.0197,0.0614
23.62,0.0047,-0.4303,9.0109,-0.2822,0.1835,0.0452
23.64,0.1476,-0.4789,9.4244,-0.3225,0.1863,-0.0223
23.66,0.2513,0.1025,9.8168,-0.2096,0.0857,-0.0498
23.68,0.3449,0.2422,9.9729,-0.1149,0.0535,-0.0391
23.7,0.1545,-0.1687,9.9218,-0.1144,0.0247,-0.0452
23.72,0.3409,0.0167,10.181,-0.0264,-0.0353,-0.0371
23.74,0.373,0.0371,10.049,-0.0054,-0.0279,0.0395
23.76,0.3746,-0.1436,10.0625,0.0054,0.0006,0.0136
23.78,0.5663,-0.085,9.9697,0.0477,-0.0223,-0.014
23.8,0.5881,-0.2453,9.8211,0.117,0.031,-0.0067
23.82,0.5373,0.1842,9.7249,0.1846,0.1151,-0.0257
23.84,0.3583,0.5417,9.7968,0.1955,0.1676,0.0376
23.86,0.4581,0.1454,9.6918,0.1255,0.1355,0.0658
23.88,0.4038,0.0322,9.252,-0.1445,-0.0465,0.1044
23.9,0.5523,0.1571,9.1227,-0.4671,-0.2448,0.1941
23.92,0.0487,0.1448,9.5467,-0.7633,-0.3149,0.2151
23.94,-0.5305,-0.2788,9.767,-0.8601,-0.1257,0.1868
23.96,-0.9314,-0.3061,11.0186,-0.6534,0.1858,0.1267
23.98,-0.1427,-0.2089,12.9824,-0.3053,0.4479,0.0299
24.0,0.6405,-0.4486,12.3597,0.2593,0.4626,-0.0737
24.02,1.3409,-0.6476,10.5745,0.6655,0.1219,-0.1796
24.04,1.1804,-0.2237,9.7094,0.8326,-0.1915,-0.1726
24.06,0.6771,-0.2984,9.0577,0.682,-0.3519,-0.1776
24.08,0.5241,0.2099,9.1672,0.3902,-0.2672,-0.1069
24.1,0.3373,0.0004,9.3501,0.0816,-0.0317,-0.1301
24.12,0.3437,-0.0247,9.6379,-0.1539,0.1248,-0.0451
24.14,0.0544,-0.1222,9.4863,-0.2814,0.1402,-0.0245
24.16,0.1352,-0.1721,9.8583,-0.2122,0.1154,0.0088
24.18,0.125,-0.1085,9.7642,-0.1781,0.0287,0.062
24.2,0.5042,0.0274,10.3448,-0.056,-0.0343,0.0116
24.22,0.6007,0.2701,10.3212,0.0177,0.023,0.0043
24.24,0.0553,-0.3719,9.8253,-0.0345,-0.0279,0.0586
24.26,0.439,0.075,9.9294,-0.001,-0.0165,0.0158
24.28,0.4021,-0.1574,9.8539,-0.0701,-0.0093,-0.028
24.3,0.0764,-0.2629,9.8179,-0.0472,-0.0086,0.0012
24.32,0.3751,0.135,10.1537,0.0125,-0.0136,0.0626
24.34,0.577,-0.0581,10.1029,0.0977,0.0324,0.0164
24.36,0.7867,0.011,10.1168,0.146,0.041,0.0409
24.38,0.5597,-0.1659,9.8878,0.1841,0.109,0.0391
24.4,0.4863,-0.2985,9.6249,0.2239,0.1504,0.0249
24.42,0.6745,-0.1236,9.5809,0.1367,0.1262,-0.012
24.44,0.0978,-0.1987,9.135,-0.1644,-0.0733,-0.0924
24.46,-0.2372,-0.3361,9.0229,-0.5217,-0.3538,-0.1635
24.48,-0.2701,-0.0377,8.9949,-0.7849,-0.3751,-0.2247
24.5,-0.6033,0.2526,9.9933,-0.8887,-0.1264,-0.1875
24.52,-0.7342,0.1484,11.0246,-0.7385,0.1706,-0.1581
24.54,-0.4549,-0.1124,12.5691,-0.2866,0.4942,-0.0768
24.56,1.1278,0.5861,12.9126,0.3625,0.4828,0.0794
24.58,1.7321,0.347,10.8426,0.7894,0.2195,0.1667
24.6,1.1743,-0.1958,9.1152,0.8329,-0.245,0.2249
24.62,0.6612,0.0608,8.8726,0.7865,-0.3596,0.1743
24.64,0.5897,-0.2109,9.2889,0.4913,-0.257,0.1987
24.66,0.4279,-0.1809,9.2703,0.0829,-0.0555,0.0956
24.68,0.192,-0.4327,9.4646,-0.1925,0.1004,0.0285
24.7,0.127,-0.3017,9.7372,-0.2477,0.1662,-0.0025
24.72,0.0742,-0.3921,9.5577,-0.2804,0.0694,0.0039
24.74,-0.113,-0.1958,9.4975,-0.2099,-0.0179,-0.012
24.76,0.3355,0.0219,9.9781,-0.0592,-0.0183,-0.0346
24.78,0.3111,-0.1471,10.2092,-0.0052,-0.0155,0.0351
24.8,0.3418,0.1403,10.3159,0.0128,0.0291,-0.0154
24.82,0.3711,-0.1823,9.7775,-0.0371,-0.0425,0.0047
24.84,0.4993,0.0564,10.0022,0.0321,0.0065,0.0195
24.86,0.3527,-0.3684,9.8451,0.0473,-0.0264,0.02
24.88,0.1142,-0.2206,9.7069,0.0062,-0.0547,-0.0133
24.9,0.1684,-0.1435,9.566,0.0606,-0.0087,-0.0344
24.92,0.3366,0.017,9.5958,0.1771,0.0831,-0.0498
24.94,0.366,-0.2415,9.3167,0.2042,0.1194,-0.0232
24.96,0.2523,-0.1154,9.0334,0.175,0.1091,0.011
24.98,-0.0361,-0.2275,8.9563,-0.089,-0.0233,0.093
25.0,-0.0644,-0.1375,8.9365,-0.3418,-0.2457,0.1653
25.02,-0.3013,-0.1453,9.1483,-0.7497,-0.3423,0.1729
25.04,-0.621,-0.3321,8.9031,-0.954,-0.2864,0.1898
25.06,-0.7682,-0.2105,10.3166,-0.8208,0.1118,0.1955
25.08,-0.2721,-0.7689,12.4302,-0.3707,0.4509,0.0812
25.1,0.2461,-0.8527,12.3921,0.0441,0.5133,-0.0497
25.12,0.9632,-1.0794,10.8182,0.6259,0.2755,-0.1481
25.14,1.575,-0.359,9.545,0.8683,-0.0883,-0.2003
25.16,0.8268,-0.3951,8.7691,0.8065,-0.3493,-0.1797
25.18,0.3728,-0.2396,8.9219,0.5616,-0.3439,-0.1653
25.2,0.2916,-0.3799,8.8486,0.1526,-0.1127,-0.1301
25.22,0.2637,0.0281,9.335,-0.1167,0.0456,-0.0706
25.24,-0.1128,0.0606,9.2819,-0.2288,0.1009,0.0272
25.26,0.0293,0.0048,9.2705,-0.2256,0.1868,0.0359
25.28,0.0386,0.0565,9.6165,-0.1864,0.0651,0.0144
25.3,0.1644,-0.3011,9.7944,-0.0798,-0.0023,0.0164
25.32,-0.0235,-0.4562,9.6738,-0.0456,-0.0233,0.0013
25.34,-0.0502,-0.509,9.3073,-0.0529,-0.039,-0.0147
25.36,0.4499,-0.0934,9.8034,0.0214,0.011,-0.0015
25.38,0.2471,-0.3699,9.6918,-0.0231,-0.0109,0.0262
25.4,0.1992,-0.1319,9.5545,0.0245,-0.0224,-0.0187
25.42,0.424,-0.0456,10.1703,0.1393,0.046,0.0333
25.44,0.0949,-0.5899,9.2363,0.2254,0.1261,0.0333
25.46,0.3615,-0.1497,9.4828,0.2485,0.1803,0.0011
25.48,0.0287,-0.3973,9.0782,0.1628,0.1295,-0.0932
25.5,0.2117,-0.2497,8.9174,-0.1132,-0.0684,-0.1167
25.52,0.0274,-0.431,9.1992,-0.4676,-0.2768,-0.1396
25.54,-0.5616,-0.3486,9.0068,-0.8141,-0.3839,-0.1995
25.56,-0.8407,0.2674,9.5275,-0.9164,-0.1962,-0.1898
25.58,-1.1664,0.2474,10.4694,-0.7962,0.175,-0.1437
25.6,-0.2176,0.6359,12.5616,-0.3568,0.53,-0.0751
25.62,0.7422,0.3537,13.1643,0.2229,0.5611,0.0779
25.64,1.218,-0.0691,10.9331,0.7471,0.2124,0.1582
25.66,1.3992,-0.1882,9.3591,0.9052,-0.1531,0.1964
25.68,0.6701,-0.1005,9.0901,0.8282,-0.4015,0.1989
25.7,0.6272,-0.0702,9.0792,0.5153,-0.301,0.1987
25.72,0.349,-0.3928,8.9002,0.0967,-0.0885,0.1214
25.74,0.3097,-0.3545,9.28,-0.1459,0.0736,0.0542
25.76,0.1839,0.0183,9.4793,-0.2921,0.1828,0.0366
25.78,0.1633,-0.4054,9.5905,-0.247,0.147,-0.003
25.8,0.1303,-0.5772,9.5873,-0.2184,0.0477,-0.0501
25.82,-0.035,-0.4847,9.6684,-0.1114,-0.0531,-0.0023
25.84,0.3546,0.0733,10.3514,-0.0565,-0.0144,0.0012
25.86,0.6305,-0.0257,9.9463,-0.0077,0.0299,-0.0135
25.88,0.2938,0.1399,9.9207,0.0031,-0.0011,-0.0119
25.9,0.5854,0.3226,9.9943,0.0596,0.0441,0.0271
25.92,0.2278,-0.0721,9.9961,-0.0267,-0.0229,-0.03
25.94,0.6708,-0.0418,10.4276,0.0753,-0.0117,0.0287
25.96,0.6449,-0.0703,9.5513,0.0849,0.0277,-0.0546
25.98,0.6562,0.2236,9.7714,0.1605,0.095,-0.0329
26.0,0.3979,0.2711,9.6068,0.2515,0.1485,0.013
26.02,0.3979,-0.0665,9.2249,0.0722,0.0803,-0.0126
26.04,-0.0748,-0.0625,9.0218,-0.1593,-0.1212,0.0713
26.06,-0.258,-0.0295,8.8136,-0.4856,-0.2908,0.1687
26.08,-0.2582,0.0467,9.2752,-0.7629,-0.3303,0.2068
26.1,-0.8947,-0.1825,9.3683,-0.8817,-0.1435,0.1926
26.12,-0.732,-0.6888,10.7499,-0.7526,0.1798,0.1263
26.14,0.0766,-0.2107,13.2345,-0.2262,0.5231,0.0708
26.16,0.7953,-0.6532,12.2718,0.305,0.5044,0.0033
26.18,1.3335,-0.2583,10.7859,0.6685,0.1784,-0.1496
26.2,1.344,-0.3651,9.2867,0.8342,-0.1821,-0.225
26.22,0.7971,-0.0425,9.0346,0.7413,-0.378,-0.1828
26.24,0.6651,0.2477,9.1597,0.4132,-0.2719,-0.1732
26.26,0.288,0.279,9.1744,0.0725,-0.0702,-0.0927
26.28,0.1907,0.018,9.5812,-0.1384,0.0919,-0.0358
26.3,0.236,-0.192,9.5924,-0.2727,0.1669,0.038
26.32,0.2473,-0.1359,9.5221,-0.229,0.1265,0.0297
26.34,0.2772,0.1337,10.0772,-0.1255,0.0299,0.0047
26.36,-0.0868,-0.0986,9.8372,-0.1135,-0.057,-0.0133
26.38,0.5066,0.1143,10.4615,-0.0048,-0.0316,0.0558
26.4,0.3685,-0.2592,9.9198,-0.0098,-0.002,-0.0026
26.42,0.3084,0.0298,9.9378,0.024,0.0175,0.0402
26.44,0.3801,0.0829,9.8237,-0.0198,0.0543,-0.044
26.46,0.1483,-0.1424,10.1519,-0.0074,0.0557,0.039
26.48,0.3932,0.0507,10.1456,-0.03,-0.0232,0.0368
26.5,0.3841,-0.1389,10.173,0.09,0.0298,0.0512
26.52,0.4515,-0.2027,9.8721,0.0485,0.0093,0.0113
26.54,0.4129,-0.4056,9.7782,0.1114,0.0572,0.0159
26.56,0.2419,-0.3372,9.4532,0.2214,0.1249,0.0292
26.58,0.3568,-0.1803,9.6446,0.2148,0.1281,-0.0436
26.6,0.3893,-0.3049,9.2304,-0.0321,0.0844,-0.1012
26.62,0.2429,-0.2041,9.1605,-0.3236,-0.1835,-0.1097
26.64,0.0597,-0.0283,9.1071,-0.6892,-0.3745,-0.2094
26.66,-0.7908,0.0273,8.8302,-0.937,-0.3329,-0.2499
26.68,-1.0284,-0.0803,9.9836,-0.903,-0.0109,-0.182
26.7,-0.8871,0.2273,11.852,-0.5214,0.3681,-0.1376
26.72,0.6791,0.4665,13.1365,0.0042,0.5444,0.0309
26.74,1.1743,0.2437,11.8124,0.6159,0.3554,0.1036
26.76,1.4509,-0.0145,10.1218,0.8902,-0.0148,0.1842
26.78,1.1604,-0.0799,9.2216,0.881,-0.2987,0.2301
26.8,0.7326,-0.4112,8.9501,0.6088,-0.3744,0.1398
26.82,0.6588,-0.09,9.1243,0.2722,-0.1417,0.1438
26.84,0.2694,-0.1859,9.0278,-0.0565,-0.0227,0.0477
26.86,0.2977,-0.5435,9.3604,-0.2383,0.1631,0.0369
26.88,0.3456,-0.4649,9.6206,-0.2563,0.1324,-0.0057
26.9,0.159,-0.6426,9.5731,-0.2045,0.0488,-0.0477
26.92,-0.0074,-0.1863,9.639,-0.1478,-0.0367,-0.0497
26.94,0.4148,0.098,10.3351,-0.0169,-0.0148,0.0345
26.96,0.4668,-0.1617,9.9462,0.008,0.0316,0.0313
26.98,0.2795,-0.3831,10.2069,0.0499,0.0671,0.0081
27.0,0.2697,-0.2336,10.037,0.0158,0.0492,0.0189
27.02,-0.1041,-0.0894,9.7152,-0.0241,-0.002,0.0074
27.04,0.3336,-0.0951,9.7744,0.0257,-0.0099,-0.0452
27.06,0.1261,-0.6356,9.6843,-0.0767,-0.0358,-0.0381
27.08,0.4694,-0.2145,9.8438,-0.0041,-0.0066,-0.0378
27.1,0.1819,0.1386,10.0677,0.1448,0.0262,-0.0313
27.12,0.3309,-0.2196,9.6689,0.1972,0.1012,-0.0133
27.14,0.0459,0.1278,9.1658,0.2241,0.1375,0.0109
27.16,0.1294,-0.3059,9.049,0.2198,0.128,0.0077
27.18,0.3232,-0.0214,9.0376,-0.0108,0.0231,0.0907
27.2,0.2358,0.046,9.3663,-0.3579,-0.1955,0.137
27.22,-0.4432,-0.2957,9.18,-0.7312,-0.3601,0.244
27.24,-0.8887,-0.2181,9.021,-1.0191,-0.3372,0.2175
27.26,-0.9416,-0.2179,10.1214,-0.9068,0.0604,0.1686
27.28,-1.1025,-0.941,11.7251,-0.5583,0.4554,0.0887
27.3,0.322,-0.2769,13.0056,0.0697,0.5591,-0.0037
27.32,0.9647,-0.5622,11.386,0.6508,0.3194,-0.125
27.34,1.3252,-0.7576,9.8149,1.0079,-0.0627,-0.1853
27.36,0.9539,-0.3233,8.8305,0.9356,-0.4037,-0.2725
27.38,1.0686,0.0831,9.0849,0.7214,-0.3163,-0.1281
27.4,0.3998,-0.073,9.0211,0.2766,-0.1585,-0.1076
27.42,0.5083,-0.1663,9.1761,-0.0664,0.0827,-0.0635
27.44,0.2166,-0.1237,9.3916,-0.2335,0.1795,0.013
27.46,-0.1198,-0.3404,9.0247,-0.3089,0.086,-0.017
27.48,-0.3396,-0.457,9.4239,-0.2305,0.0363,0.0428
27.5,0.171,-0.2161,9.7024,-0.0951,-0.0216,0.0647
27.52,0.1323,-0.406,9.7961,-0.0559,-0.0129,0.0174
27.54,0.3708,-0.2014,9.6666,0.0119,-0.0113,-0.0085
27.56,0.1024,-0.3863,9.4308,-0.0467,-0.0399,-0.0426
27.58,0.0691,-0.3918,9.5549,-0.0816,-0.0353,0.0127
27.6,0.0832,-0.2711,9.6719,-0.0243,-0.0129,0.0099
27.62,0.2984,-0.5451,9.6674,0.0741,-0.0373,0.055
27.64,0.4227,-0.126,9.7573,0.0795,0.017,0.0197
27.66,0.8105,-0.2389,9.8779,0.2331,0.0916,0.0607
27.68,0.5928,-0.3748,9.4598,0.2574,0.119,0.0414
27.7,0.2405,-0.7076,9.1316,0.1645,0.1725,-0.0615
27.72,0.1314,-0.5358,9.1364,0.0258,0.0593,-0.0621
27.74,-0.1166,-0.5418,8.9112,-0.3264,-0.1593,-0.1659
27.76,-0.2637,-0.2383,8.8664,-0.7132,-0.3834,-0.1821
27.78,-0.8695,0.0133,9.2452,-0.954,-0.2959,-0.2283
27.8,-1.0351,-0.2123,9.9105,-0.8965,0.0162,-0.1611
27.82,-0.4565,0.283,12.14,-0.5406,0.4058,-0.0866
27.84,0.0589,-0.0271,12.666,-0.0118,0.517,0.0013
27.86,0.9508,-0.0082,11.3509,0.5668,0.3461,0.1083
27.88,1.4474,0.1028,10.3991,0.9301,0.0121,0.2322
27.9,1.5422,0.0648,9.4527,1.0146,-0.2822,0.2491
27.92,0.5543,0.0347,8.9851,0.6931,-0.3676,0.2048
27.94,0.1097,-0.307,9.061,0.2618,-0.1935,0.124
27.96,0.2355,-0.4004,9.1269,-0.0914,0.0369,0.0435
27.98,0.2988,-0.4119,9.4049,-0.2421,0.1291,0.041
28.0,0.13,0.205,9.5981,-0.2353,0.1358,-0.0455
28.02,-0.0716,-0.3805,9.6702,-0.2088,0.0767,0.0029
28.04,0.0811,-0.0913,9.8145,-0.1152,0.0176,-0.0348
28.06,0.1215,-0.1388,10.0815,-0.0442,-0.0271,-0.0053
28.08,0.3503,-0.1081,10.0852,-0.0093,0.0121,-0.011
28.1,0.4242,-0.1799,9.8958,-0.0258,-0.0076,-0.0459
28.12,0.422,0.0146,10.1444,0.0003,-0.0044,-0.0041
28.14,0.4779,-0.1237,9.9301,0.0381,0.0258,0.0077
28.16,0.4896,0.1233,9.7451,0.1343,0.0549,-0.0241
28.18,1.292,0.2605,10.5974,0.2483,0.1168,-0.0223
28.2,0.2032,-0.3634,9.3782,0.2323,0.0825,-0.0248
28.22,0.4758,0.1035,9.5747,0.1782,0.1393,0.0463
28.24,0.4531,-0.1178,9.5547,-0.0224,-0.0116,0.0617
28.26,0.2843,0.1503,9.3169,-0.3562,-0.2402,0.1288
28.28,0.1352,0.127,9.1862,-0.6681,-0.3604,0.2149
28.3,-0.853,-0.5587,9.2547,-0.8894,-0.2569,0.1833
28.32,-0.8126,-0.5784,10.1252,-0.8638,0.0478,0.2074
28.34,-0.3778,-0.4109,12.0691,-0.4574,0.3791,0.0857
28.36,0.587,-0.2744,12.7099,0.0552,0.5459,-0.0298
28.38,0.9514,-0.5448,11.3177,0.5643,0.3253,-0.157
28.4,1.2419,-0.6567,9.7246,0.7641,-0.0685,-0.1933
28.42,1.3154,-0.0912,9.4354,0.8317,-0.282,-0.1759
28.44,0.2862,0.2639,9.0209,0.6023,-0.3996,-0.1747
28.46,0.4259,0.1712,9.4729,0.2416,-0.1402,-0.1223
28.48,-0.0192,-0.0464,9.1586,-0.0662,0.0506,-0.0211
28.5,0.5953,0.2824,10.1971,-0.1692,0.2055,0.0374
28.52,0.3569,0.0364,9.6358,-0.2261,0.1723,-0.004
28.54,-0.0356,-0.0611,9.5608,-0.1864,0.0267,0.0296
28.56,0.0478,0.0812,10.3845,-0.0826,-0.0289,0.0413
28.58,0.2854,0.0198,10.1419,-0.0092,-0.0578,0.0331
28.6,0.3178,-0.2186,9.9055,0.0132,-0.0557,0.0226
28.62,0.8958,0.0593,10.2718,0.0734,0.0276,-0.033
28.64,0.2684,-0.202,9.757,0.0585,0.0794,0.0018
28.66,-0.1681,-0.0939,9.5895,-0.0204,-0.0153,0.0005
28.68,0.3243,-0.1739,9.9769,0.0084,-0.0039,-0.002
28.7,0.7936,0.0264,10.4117,0.0747,-0.0274,0.0412
28.72,0.6981,0.2399,10.4557,0.1411,0.0517,0.0683
28.74,0.59,-0.1147,9.8482,0.2361,0.1145,-0.0086
28.76,0.4737,-0.078,9.7135,0.2437,0.1303,0.0187
28.78,0.4391,0.149,9.8225,0.15,0.1334,-0.0646
28.8,-0.108,-0.571,8.7512,-0.1762,-0.0533,-0.0913
28.82,0.3062,-0.1958,9.6637,-0.4352,-0.2548,-0.1672
28.84,0.2314,0.2974,9.8594,-0.7049,-0.3169,-0.1986
28.86,-0.1462,0.0102,9.6796,-0.8568,-0.1967,-0.1492
28.88,-0.2724,0.2181,10.9701,-0.6571,0.1968,-0.1545
28.9,-0.4049,-0.0619,11.3277,-0.2633,0.4036,-0.0454
28.92,0.5241,-0.1177,11.3467,0.2471,0.4575,0.0326
28.94,1.0056,0.277,10.5864,0.6984,0.1534,0.1345
28.96,1.0301,-0.0223,9.7022,0.8118,-0.149,0.1747
28.98,0.6605,-0.0992,9.4702,0.7271,-0.3053,0.2049
29.0,0.3866,-0.0781,9.2848,0.4138,-0.2967,0.1557
29.02,-0.0271,-0.2298,9.0703,0.1017,-0.064,0.0695
29.04,0.4758,-0.2634,9.518,-0.1341,0.0896,0.0632
29.06,0.3423,-0.1782,9.7285,-0.2072,0.1718,-0.0229
29.08,0.0475,-0.2848,9.6081,-0.2302,0.065,-0.0252
29.1,0.265,-0.2636,9.9696,-0.0869,0.0291,0.0302
29.12,0.2612,-0.0354,10.0058,-0.0343,-0.0172,-0.0416
29.14,0.3279,-0.1917,10.0008,-0.0089,-0.0085,-0.0073
29.16,0.2915,-0.2031,9.7595,-0.0242,0.0177,0.011
29.18,0.2093,-0.3152,9.9826,0.0009,0.0213,0.0302
29.2,0.2689,-0.3779,9.577,-0.047,0.0028,-0.0223
29.22,0.3283,0.0155,10.0659,0.0388,0.0234,0.0267
29.24,0.0902,-0.2157,9.7817,0.0847,-0.0428,-0.0262
29.26,0.4498,-0.2753,9.583,0.1236,0.0041,-0.0395
29.28,0.3969,-0.3325,9.4014,0.245,0.0767,0.0251
29.3,-0.1277,-0.3194,8.9571,0.2047,0.1241,-0.0478
29.32,0.5119,0.01,9.3831,0.2016,0.1342,0.0462
29.34,0.2909,-0.1643,9.0184,-0.1251,-0.0724,0.1098
29.36,-0.1114,-0.1409,9.0137,-0.4473,-0.2405,0.1427
29.38,-0.211,-0.1774,8.9641,-0.7548,-0.3351,0.243
29.4,-0.8454,-0.4264,9.1645,-0.908,-0.2607,0.2427
29.42,-1.2135,-0.5897,10.1373,-0.8141,0.1743,0.2056
29.44,-0.2402,-0.6962,12.2695,-0.3102,0.4977,0.0905
29.46,0.8693,-0.2752,12.7944,0.2431,0.5005,-0.0371
29.48,1.1882,-0.4006,10.8873,0.7221,0.3041,-0.1478
29.5,1.27,-0.3919,9.4466,0.8984,-0.0875,-0.2149
29.52,0.5636,-0.5432,8.7765,0.8186,-0.3791,-0.2385
29.54,0.4428,-0.2367,9.0557,0.5068,-0.3405,-0.1583
29.56,0.3309,0.1331,8.9906,0.1503,-0.0681,-0.1124
29.58,-0.1723,-0.066,9.0164,-0.1679,0.0887,-0.0447
29.6,-0.2609,-0.0718,9.1833,-0.2495,0.156,-0.0001
29.62,-0.0711,-0.2175,9.3359,-0.24,0.1203,0.0178
29.64,-0.1387,-0.15,9.6309,-0.1986,0.0327,0.0361
29.66,-0.0275,-0.2853,9.6469,-0.0542,0.0091,0.0955
29.68,0.1556,-0.5885,9.7584,-0.0602,-0.0035,-0.0097
29.7,0.3549,-0.491,9.8103,-0.0352,-0.0054,-0.0247
29.72,0.4311,-0.1593,9.7184,-0.0072,-0.005,-0.0194
29.74,0.2361,-0.112,9.8476,0.01,-0.011,0.0188
29.76,0.2356,-0.1874,9.8135,0.0258,0.0152,-0.0097
29.78,0.2757,-0.0304,9.8722,0.0701,-0.0319,0.036
29.8,0.1781,-0.5098,9.5469,0.052,-0.0002,0.0338
29.82,0.3215,-0.3839,9.4608,0.1862,0.0522,0.042
29.84,0.4454,-0.2861,9.2846,0.2855,0.1911,0.0007
29.86,0.1394,-0.545,9.1567,0.1224,0.1119,-0.0191
29.88,0.3705,-0.7261,9.009,-0.1283,-0.0779,-0.0588
29.9,-0.0591,-0.3857,8.4049,-0.4544,-0.3708,-0.1603
29.92,-0.3734,0.0655,8.7485,-0.7484,-0.3704,-0.2113
29.94,-1.0165,-0.278,9.2404,-0.933,-0.2057,-0.1786
29.96,-1.1363,-0.2849,9.9326,-0.8419,0.1268,-0.1494
29.98,-0.1418,0.5517,12.4171,-0.2931,0.486,-0.0443
30.0,-0.0524,-0.2837,11.6767,0.1649,0.4194,0.0569
30.02,0.4224,-0.6867,9.7979,0.5436,0.1984,0.1065
30.04,1.0585,-0.3327,8.9048,0.8392,-0.1665,0.1943
30.06,1.3347,0.3194,9.7838,0.8101,-0.3486,0.2048
30.08,0.6369,-0.2956,9.1392,0.4702,-0.3509,0.1301
30.1,0.3684,-0.1545,9.2372,0.1561,-0.096,0.1023
30.12,0.9749,0.3663,10.3838,-0.0483,0.1392,0.0278
30.14,0.1761,-0.1972,9.4156,-0.1908,0.1559,0.0225
30.16,-0.2828,-0.2122,9.5174,-0.2174,0.081,-0.0455
30.18,0.2412,-0.439,9.5951,-0.1715,0.0396,-0.0253
30.2,0.4062,-0.2141,10.0257,-0.0346,-0.0022,0.0219
30.22,-0.2673,-0.156,9.8851,-0.0551,-0.0613,0.0048
30.24,0.2044,-0.2178,9.6945,-0.0619,-0.0027,0.0044
30.26,1.1708,0.7591,11.01,0.0707,0.0418,-0.0148
30.28,-0.0679,-0.2474,9.529,-0.054,-0.0387,0.0339
30.3,0.7685,0.3503,10.6416,0.0523,0.0269,-0.0237
30.32,0.4445,-0.0475,10.1221,0.0796,-0.0593,-0.013
30.34,0.2565,-0.2462,9.6574,0.0994,-0.0203,-0.0257
30.36,0.2448,-0.2489,9.2795,0.1481,0.0483,-0.0385
30.38,1.1864,0.7511,10.4506,0.3586,0.183,0.0077
30.4,0.2135,-0.0462,9.2429,0.1408,0.1364,0.0378
30.42,-0.0637,-0.0409,9.004,-0.0635,0.0292,0.1194
30.44,0.2601,-0.2227,9.3232,-0.384,-0.233,0.1565
30.46,0.2653,-0.0538,9.1306,-0.727,-0.3709,0.1812
30.48,-0.9231,-0.3775,8.9058,-1.0177,-0.2946,0.225
30.5,-0.8273,-0.0333,10.7826,-0.8323,0.1256,0.1634
30.52,-0.6801,-0.2935,11.9044,-0.4967,0.4001,0.1249
30.54,0.5744,-0.4023,13.0005,0.0807,0.5376,-0.0006
30.56,1.444,-0.0216,12.1772,0.6558,0.3078,-0.1996
30.58,1.178,-0.2984,9.6351,0.9027,-0.1232,-0.205
30.6,1.3934,0.0561,9.2329,0.881,-0.3523,-0.2084
30.62,0.4379,-0.0395,8.9567,0.5903,-0.3879,-0.2225
30.64,0.4499,-0.0385,9.5404,0.3234,-0.1116,-0.0937
30.66,-0.0451,-0.4487,8.5925,-0.1314,0.0212,-0.1014
30.68,0.0326,-0.4708,8.9247,-0.2961,0.1577,0.0137
30.7,0.1187,-0.2152,9.4943,-0.2669,0.1474,0.0706
30.72,0.0868,-0.2259,9.8615,-0.1763,0.0268,0.0407
30.74,0.5352,0.0892,10.0748,-0.1,-0.0152,0.018
30.76,0.3968,-0.1257,10.2686,-0.0532,-0.0227,0.0005
30.78,-0.0308,-0.039,10.2363,0.0004,-0.0194,0.0127
30.8,0.4925,-0.3647,9.892,-0.0169,0.0166,0.0204
30.82,0.271,-0.1808,9.9287,-0.0264,0.0004,0.0262
30.84,0.2652,0.0463,9.9807,-0.0003,-0.0284,0.0187
30.86,0.4582,0.0521,9.7574,0.0144,-0.0241,-0.0132
30.88,0.725,-0.19,9.9408,0.1162,0.0195,0.0671
30.9,0.4091,-0.2241,9.7645,0.1834,0.0773,0.0341
30.92,0.5682,-0.1456,9.6591,0.224,0.1372,0.0066
30.94,-0.0114,-0.3217,9.0432,0.1385,0.107,-0.0763
30.96,0.3981,-0.3589,9.1387,-0.0235,-0.0484,-0.0675
30.98,0.2762,-0.3731,9.0517,-0.292,-0.1998,-0.1195
31.0,-0.1473,-0.297,9.2344,-0.6423,-0.3444,-0.1609
31.02,-0.8496,-0.0266,9.1952,-0.8237,-0.2632,-0.212
31.04,-0.7984,0.1212,10.2942,-0.7549,0.0305,-0.1451
31.06,-0.4612,-0.1656,11.3897,-0.4613,0.4039,-0.0901
31.08,0.4938,0.4839,12.2937,0.0911,0.4596,-0.0043
31.1,1.1774,0.4659,11.6578,0.5329,0.2991,0.1409
31.12,1.3255,-0.0964,9.6684,0.7705,-0.0443,0.2016
31.14,1.2337,-0.0197,9.2864,0.7644,-0.2682,0.2008
31.16,0.6277,0.1473,9.1207,0.5656,-0.2984,0.2023
31.18,0.4468,-0.4042,8.781,0.2135,-0.1775,0.0859
31.2,0.071,-0.6517,9.3742,-0.0545,0.0294,0.0623
31.22,0.2761,-0.2952,9.6796,-0.1728,0.1554,0.0179
31.24,-0.1676,-0.2598,9.5981,-0.2111,0.1237,0.0082
31.26,0.1248,-0.0114,9.7222,-0.182,0.0637,-0.0212
31.28,-0.0595,-0.2993,9.4133,-0.1232,-0.0425,-0.048
31.3,-0.063,-0.2529,9.8319,-0.046,-0.0287,-0.0139
31.32,0.397,-0.2341,9.8601,0.0124,-0.0244,-0.0236
31.34,0.1126,-0.28,9.717,0.0268,-0.0029,-0.0281
31.36,0.2325,-0.1232,9.8192,-0.0268,-0.0084,-0.0168
31.38,0.1937,-0.5345,9.6634,-0.0251,-0.0227,-0.0819
31.4,0.086,-0.4242,9.8402,-0.0029,-0.0715,-0.0082
31.42,0.2688,-0.1086,10.0228,0.0587,-0.0217,-0.0473
31.44,0.7302,-0.1665,10.0878,0.1741,0.0417,-0.0139
31.46,0.2542,-0.0292,9.432,0.1962,0.1171,-0.0409
31.48,0.3211,-0.1037,9.0471,0.188,0.1351,-0.0166
31.5,0.271,0.13,9.169,0.2572,0.1375,0.0332
31.52,0.4176,0.0862,8.9704,-0.0239,-0.0333,0.0998
31.54,-0.0866,-0.1939,8.837,-0.4505,-0.2911,0.148
31.56,-0.4837,-0.2434,8.725,-0.8268,-0.4434,0.2183
31.58,-0.669,-0.2016,9.0758,-1.0127,-0.3522,0.1834
31.6,-0.6967,-0.3683,10.1762,-0.8887,0.0502,0.2017
31.62,-0.4945,-0.407,11.9719,-0.5441,0.453,0.0697
31.64,0.43,-0.5382,12.5054,0.1338,0.5693,-0.0059
31.66,0.8733,-0.4793,11.4905,0.6724,0.3189,-0.1465
31.68,1.4198,-0.7291,9.5469,0.9835,-0.0812,-0.2493
31.7,0.8976,-0.3259,8.7467,0.9468,-0.3958,-0.2918
31.72,0.924,-0.3499,9.0521,0.7073,-0.3643,-0.2155
31.74,0.5414,0.1259,9.1541,0.2901,-0.1503,-0.1224
31.76,0.1847,-0.2892,9.0058,-0.0687,0.0638,-0.1041
31.78,0.0128,-0.2557,9.1241,-0.2789,0.1509,-0.0196
31.8,-0.5636,-0.3534,9.0889,-0.3017,0.0835,0.0241
31.82,-0.1744,-0.2218,9.4742,-0.1804,0.0183,0.0185
31.84,0.0614,-0.1496,9.8656,-0.0885,0.0264,0.0375
31.86,0.0609,-0.3761,9.6933,-0.076,-0.0469,0.0367
31.88,0.2367,-0.4217,9.4924,-0.065,-0.0477,-0.0423
31.9,0.1199,-0.4022,9.976,-0.0101,-0.0511,0.0144
31.92,0.494,-0.1972,9.959,0.0315,-0.0136,0.0345
31.94,0.2535,-0.3083,9.6462,0.0563,-0.0273,0.0435
31.96,0.5764,-0.2026,9.7172,0.1099,0.0247,0.0085
31.98,0.3602,-0.134,9.5868,0.2328,0.0824,0.0663
32.0,0.467,-0.1759,9.5006,0.3029,0.1057,0.0656
32.02,0.35,-0.277,9.2612,0.2305,0.0719,-0.0517
32.04,0.0395,-0.6622,8.7301,-0.0867,-0.0407,-0.0959
32.06,-0.2683,-0.548,8.9954,-0.3498,-0.2383,-0.1498
32.08,-0.1389,-0.5034,8.8595,-0.6858,-0.3687,-0.1688
32.1,-0.4262,-0.1877,9.3582,-0.8606,-0.2432,-0.2145
32.12,-1.1881,-0.3645,9.8861,-0.8405,0.0248,-0.1515
32.14,-0.4528,0.2912,11.8619,-0.4154,0.3704,-0.1125
32.16,0.3091,0.0175,12.0838,0.1423,0.4351,0.0098
32.18,1.0544,0.2136,11.1191,0.626,0.3064,0.1661
32.2,1.1768,0.0854,9.3758,0.8709,-0.1514,0.211
32.22,1.0502,-0.1432,9.1668,0.8772,-0.3007,0.2134
32.24,0.5359,-0.0967,8.8848,0.5249,-0.3696,0.1608
32.26,0.3152,-0.2886,9.1744,0.2021,-0.1474,0.1174
32.28,0.4187,-0.3575,9.178,-0.0335,0.0704,0.0513
32.3,0.0049,-0.3995,9.336,-0.2571,0.1331,0.0021
32.32,-0.0777,-0.2769,9.406,-0.2199,0.0605,-0.058
32.34,0.1801,-0.2492,9.63,-0.166,0.0584,-0.0164
32.36,0.265,-0.0045,9.985,-0.0628,0.0005,-0.0225
32.38,0.432,0.1786,10.1355,-0.0148,-0.0042,0.019
32.4,0.3467,-0.3979,10.1051,0.0439,-0.022,-0.0015
32.42,0.4568,-0.143,10.0729,0.0244,0.0184,0.0239
32.44,0.1951,-0.4614,9.5697,-0.0564,-0.0355,0.031
32.46,0.4027,-0.0961,9.8854,0.0303,-0.0493,0.0252
32.48,-0.0103,-0.2707,9.7912,-0.0046,-0.0237,0.0136
32.5,0.7213,-0.1059,10.3588,0.0251,-0.0118,-0.0246
32.52,0.1895,-0.1496,9.7185,0.0356,-0.0453,-0.0273
32.54,0.6156,-0.2075,9.8117,0.1746,0.0031,-0.0561
32.56,0.3542,-0.0113,9.8431,0.1819,0.0566,-0.0103
32.58,0.5468,0.089,9.3059,0.2238,0.138,-0.0055
32.6,0.5515,0.1619,9.4509,0.1809,0.1186,0.0382
32.62,0.2625,0.0951,9.1301,-0.029,-0.0199,0.0675
32.64,0.2332,-0.3325,9.0788,-0.3736,-0.2621,0.1334
32.66,-0.4971,-0.1153,8.8548,-0.6965,-0.3851,0.1656
32.68,-0.4866,-0.3322,9.3261,-0.8978,-0.2862,0.2141
32.7,-0.7388,-0.4047,10.3698,-0.7603,0.0696,0.1249
32.72,-0.209,-0.336,12.4428,-0.4147,0.4385,0.0714
32.74,0.3509,-0.4197,12.4992,0.089,0.4701,-0.0107
32.76,1.1728,-0.3744,11.1216,0.6553,0.2642,-0.1261
32.78,1.43,-0.3744,9.7421,0.8796,-0.1121,-0.1698
32.8,0.9418,-0.1731,8.9806,0.7642,-0.3452,-0.1806
32.82,0.6533,-0.0252,9.1371,0.5706,-0.2975,-0.1351
32.84,0.331,-0.145,9.1037,0.2158,-0.1347,-0.0605
32.86,0.2167,-0.1854,9.212,-0.0738,0.0419,-0.0296
32.88,0.687,0.0881,9.7165,-0.1888,0.186,0.0339
32.9,0.1585,0.0977,9.8654,-0.1895,0.1249,0.0409
32.92,-0.0115,-0.2535,9.5676,-0.1572,-0.0258,0.0164
32.94,0.3336,-0.0897,9.8208,-0.0883,-0.0585,-0.0218
32.96,0.4438,-0.1227,10.179,-0.0524,-0.0693,0.0224
32.98,0.274,-0.229,9.9029,0.0059,-0.0308,0.0146
33.0,0.641,-0.1537,9.9311,-0.0101,-0.0134,-0.0083
33.02,0.1379,-0.1616,9.7988,-0.033,-0.0031,-0.0368
33.04,0.6264,0.2011,10.1316,0.0559,0.0504,0.0509
33.06,0.456,-0.1999,9.8212,-0.0283,-0.0474,-0.0197
33.08,0.4232,-0.2189,10.0566,-0.0074,0.0005,-0.027
33.1,0.2618,0.0892,10.0246,0.0447,-0.0172,0.0222
33.12,0.4453,-0.0225,9.5996,0.0436,-0.0294,0.0002
33.14,0.6384,0.2812,9.7264,0.2578,0.0871,0.0456
33.16,0.6525,-0.169,9.77,0.2591,0.1195,0.0224
33.18,0.5318,-0.1862,9.4987,0.2068,0.0986,-0.0065
33.2,0.4045,-0.5022,9.1027,-0.0629,-0.0652,-0.1063
33.22,0.3506,-0.3298,9.151,-0.2993,-0.2673,-0.1159
33.24,0.5252,0.1985,9.4012,-0.6597,-0.3669,-0.1681
33.26,-0.5242,-0.0343,9.3174,-0.9395,-0.3298,-0.2057
33.28,-0.7296,0.0101,10.2505,-0.7881,0.0206,-0.2355
33.3,-0.1863,0.045,11.776,-0.4573,0.3453,-0.1211
33.32,0.6485,0.3096,12.7903,0.0666,0.4847,0.0414
33.34,1.266,0.0142,11.3605,0.6216,0.3346,0.1392
33.36,1.556,-0.0902,9.9571,0.8607,-0.0207,0.2139
33.38,1.5622,-0.2541,9.3751,0.899,-0.3261,0.2158
33.4,0.6351,-0.3584,9.2095,0.6165,-0.3508,0.1887
33.42,0.1707,-0.3005,8.7448,0.205,-0.1739,0.1376
33.44,0.3282,-0.31,9.238,-0.0417,0.046,0.0345
33.46,0.3518,-0.5626,9.2329,-0.2207,0.0945,-0.0263
33.48,0.0696,-0.1789,9.5761,-0.2287,0.0888,-0.009
33.5,-0.148,-0.5236,9.4514,-0.2155,0.0067,-0.0121
33.52,-0.1458,-0.7419,9.5086,-0.1746,-0.0947,-0.0775
33.54,0.3668,-0.1502,10.1092,-0.0257,-0.0577,-0.0301
33.56,0.4852,-0.1472,9.905,0.0137,-0.0018,-0.0239
33.58,0.405,-0.2548,9.5017,-0.0626,-0.0223,-0.0433
33.6,0.0896,-0.4657,9.5916,-0.0448,-0.0036,0.0135
33.62,0.6265,-0.0216,9.8179,0.021,0.0202,0.0176
33.64,0.4122,-0.0929,9.7691,0.0144,-0.069,-0.0202
33.66,0.4566,-0.446,9.6828,-0.0184,-0.0154,-0.0327
33.68,0.6425,-0.106,10.0885,0.1815,0.0224,-0.0019
33.7,0.2748,-0.2519,9.4471,0.1318,0.0088,-0.0444
33.72,0.3764,-0.0406,9.43,0.2486,0.0935,-0.0204
33.74,0.4266,-0.2547,9.1637,0.2465,0.0943,-0.0402
33.76,0.49,-0.1086,9.3374,0.0764,0.072,0.1015
33.78,0.0874,-0.2131,8.6449,-0.2636,-0.1678,0.1105
33.8,-0.0832,-0.2488,8.9195,-0.5378,-0.3523,0.1839
33.82,-0.5416,-0.6279,8.5882,-0.8978,-0.349,0.1737
33.84,-0.5978,-0.3499,9.461,-0.9222,-0.08,0.1973
33.86,-0.7908,-0.907,10.9955,-0.6002,0.2969,0.1236
33.88,0.1746,-0.824,12.6202,-0.0937,0.5057,0.0093
33.9,1.2058,-0.7263,12.1048,0.415,0.4215,-0.0805
33.92,1.3139,-0.9495,9.9778,0.8388,0.0886,-0.1665
33.94,1.4913,0.0842,9.2285,0.9058,-0.2493,-0.1565
33.96,0.6879,-0.3284,8.6808,0.7076,-0.4027,-0.1829
33.98,0.7976,-0.208,8.9665,0.3919,-0.2508,-0.0989
34.0,0.2383,-0.1877,8.8036,0.0483,-0.0126,-0.0715
34.02,0.3248,-0.1944,9.1179,-0.1805,0.0848,-0.0497
34.04,0.1155,-0.2106,9.4747,-0.2567,0.1417,0.0437
34.06,-0.0452,-0.3133,9.609,-0.1993,0.082,0.0243
34.08,0.0883,-0.3525,9.6767,-0.1401,-0.0158,0.0672
34.1,0.3345,-0.3643,9.96,0.0453,0.0008,0.0464
34.12,0.1799,-0.3885,9.8552,0.0115,-0.031,-0.0035
34.14,0.562,-0.1267,9.8382,0.0524,0.0163,0.0479
34.16,0.2903,-0.6054,9.6662,0.0316,-0.0617,-0.0298
34.18,0.5613,-0.0881,9.9245,0.1233,0.0095,0.002
34.2,0.617,-0.1882,9.6868,0.2204,0.0244,0.0031
34.22,0.7992,-0.2805,9.0901,0.2732,0.1617,0.0371
34.24,0.449,-0.2644,9.2739,0.2444,0.2088,0.041
34.26,0.5617,-0.2822,9.0991,0.0724,0.0525,-0.0484
34.28,0.2252,-0.1686,9.0781,-0.2519,-0.2065,-0.14
34.3,0.266,-0.298,8.8296,-0.6239,-0.3562,-0.1783
34.32,-0.3404,-0.2671,9.1702,-0.9179,-0.3439,-0.1566
34.34,-0.9987,0.0057,9.6916,-0.9281,-0.0488,-0.2353
34.36,-0.3406,0.1597,11.6525,-0.6123,0.3829,-0.1044
34.38,0.3251,-0.2937,12.7326,-0.022,0.5389,0.0033
34.4,1.1287,-0.105,11.4853,0.4764,0.3965,0.0611
34.42,1.6122,0.2899,10.1357,0.8653,-0.0057,0.2173
34.44,1.4975,0.0753,8.8916,0.929,-0.3464,0.2444
34.46,0.7452,-0.2581,9.0182,0.767,-0.3828,0.1842
34.48,0.4594,-0.3139,9.0407,0.3426,-0.2165,0.1343
34.5,0.4983,-0.339,9.1354,0.0245,-0.0073,0.0607
34.52,0.5303,-0.1269,9.4547,-0.1346,0.2125,0.0439
34.54,0.5258,-0.1169,9.6186,-0.2157,0.1554,-0.009
34.56,0.1931,-0.3573,9.2945,-0.2283,0.0178,-0.0307
34.58,0.2717,-0.4427,9.6167,-0.1719,-0.0434,-0.0326
34.6,0.1465,0.0495,9.8356,-0.0176,-0.043,-0.0156
34.62,0.5385,-0.1917,9.8347,0.0026,-0.0415,-0.0771
34.64,0.6763,-0.1263,10.0346,0.0449,0.0064,0.0168
34.66,0.5185,-0.2536,9.8237,0.0078,0.0012,-0.0265
34.68,0.4245,-0.5,9.617,-0.0542,-0.0054,0.0131
34.7,0.6005,-0.2417,9.8744,0.0224,0.0027,0.0242
34.72,0.2237,-0.233,9.512,0.0239,-0.0304,-0.014
34.74,0.4011,-0.1883,9.8432,-0.0044,-0.0152,-0.0398
34.76,0.199,-0.2758,9.877,0.0005,-0.0038,0.0205
34.78,0.8043,-0.1467,9.7446,0.106,0.026,-0.0243
34.8,0.6863,-0.0792,9.8222,0.1893,0.0582,-0.0247
34.82,0.8214,-0.1202,9.5851,0.239,0.1128,-0.0265
34.84,0.594,-0.0105,9.5733,0.2738,0.163,0.0103
34.86,0.6868,0.1033,9.6939,0.0561,0.0392,0.104
34.88,0.4014,-0.2394,9.129,-0.2617,-0.2289,0.123
34.9,0.0361,-0.0273,8.8989,-0.6381,-0.3389,0.1756
34.92,-0.4489,-0.239,8.9473,-0.8617,-0.2957,0.2078
34.94,-0.7526,-0.3503,10.1176,-0.8386,-0.0213,0.1771
34.96,-0.3499,-0.5052,11.8373,-0.5276,0.3776,0.0424
34.98,0.5933,-0.2954,12.689,0.0517,0.5224,-0.023
35.0,1.5973,-0.4263,12.1054,0.4903,0.3484,-0.103
35.02,1.3517,-0.3516,10.0784,0.7829,-0.0387,-0.189
35.04,0.9398,-0.1662,9.1132,0.84,-0.3408,-0.2095
35.06,0.8182,0.0771,8.8391,0.6305,-0.3319,-0.1945
35.08,0.5428,-0.1878,8.9476,0.2475,-0.2677,-0.1096
35.1,0.6828,0.514,9.5052,-0.0433,0.0283,-0.0618
35.12,0.6808,0.0686,9.4838,-0.1747,0.127,-0.0296
35.14,0.3858,0.1435,10.3122,-0.2179,0.1613,0.049
35.16,0.3252,-0.1182,9.7575,-0.2015,0.0579,0.0358
35.18,0.5952,-0.2026,9.8409,-0.095,-0.0203,-0.0069
35.2,0.3825,0.0628,10.1791,-0.0035,-0.0271,-0.0143
35.22,0.579,-0.1131,10.2878,-0.0165,0.0226,0.024
35.24,0.6943,-0.149,10.005,0.0202,-0.036,0.0371
35.26,0.275,-0.2231,9.7623,-0.0507,-0.0567,0.0132
35.28,0.5261,-0.0184,10.2306,0.0368,-0.002,0.0135
35.3,0.5218,-0.3595,9.6824,0.0324,-0.0449,0.0105
35.32,0.8853,0.0593,10.1399,0.1606,0.0197,0.0502
35.34,0.8451,-0.3042,9.7978,0.2346,0.0741,0.0097
35.36,0.7903,-0.1976,9.658,0.2512,0.1302,-0.0327
35.38,0.6933,-0.274,9.6433,0.1257,0.0518,-0.0481
35.4,0.4779,-0.0014,9.396,-0.1057,-0.1061,-0.1175
35.42,0.3131,-0.4512,8.9003,-0.5041,-0.3574,-0.1445
35.44,-0.1236,-0.2227,8.9765,-0.7896,-0.3759,-0.2122
35.46,-0.6615,0.1864,9.3627,-0.8539,-0.1925,-0.2111
35.48,-0.5204,0.0378,10.8826,-0.6635,0.1428,-0.1303
35.5,0.095,0.1642,12.2547,-0.2224,0.4816,-0.0203
35.52,1.4165,0.5731,12.6327,0.2983,0.3659,0.0827
35.54,1.315,0.0102,10.6275,0.6837,0.1273,0.1709
35.56,1.5205,-0.2002,9.4364,0.8351,-0.2193,0.2402
35.58,1.1524,-0.1355,8.9857,0.7124,-0.3425,0.1428
35.6,0.6846,-0.4422,9.0563,0.4115,-0.3079,0.1164
35.62,0.8247,-0.1944,9.303,0.1197,-0.0257,0.1047
35.64,0.5802,-0.2142,9.2081,-0.119,0.096,0.0551
35.66,0.3243,-0.283,9.265,-0.233,0.1257,-0.0334
35.68,0.1518,-0.1953,9.5823,-0.178,0.0832,-0.0348
35.7,0.2375,-0.4545,9.9418,-0.1162,0.0175,-0.0156
35.72,-0.0117,-0.5878,9.7426,-0.0563,-0.018,-0.0268
35.74,0.1377,-0.0984,10.0721,0.0268,-0.0149,0.0191
35.76,0.6603,-0.0539,9.8265,0.0182,0.0045,0.0181
35.78,0.6084,-0.1157,9.8392,0.001,0.0276,0.0025
35.8,0.6439,-0.3225,9.5786,-0.0098,-0.0094,-0.0128
35.82,0.277,-0.5231,9.6579,0.0045,0.006,-0.0211
35.84,0.4488,-0.0683,9.8315,0.0086,-0.0134,-0.0289
35.86,0.5169,0.0375,9.9731,0.0333,-0.0116,-0.037
35.88,0.3865,-0.4191,9.7217,0.0466,-0.0373,-0.0024
35.9,0.5881,-0.2338,9.7175,0.1549,0.0295,-0.0119
35.92,0.8407,0.2499,9.9966,0.3022,0.1487,0.0071
35.94,0.4172,-0.5161,9.0128,0.1901,0.1259,-0.0399
35.96,0.4037,-0.0595,9.2523,0.0872,0.0367,0.0705
35.98,0.5751,-0.076,9.3676,-0.1581,-0.1193,0.144
36.0,0.0299,-0.1702,8.8753,-0.4623,-0.3394,0.1657
36.02,-0.1701,-0.1359,9.2567,-0.7208,-0.3059,0.2124
36.04,-0.5691,-0.2174,9.6323,-0.8458,-0.1481,0.2039
36.06,-0.3726,-0.5706,11.1543,-0.6192,0.2471,0.126
36.08,-0.1517,-0.4754,11.8919,-0.1778,0.4855,0.0556
36.1,1.0302,-0.2387,12.0359,0.3169,0.3585,-0.0885
36.12,1.6275,-0.2001,10.5816,0.7803,0.0839,-0.1437
36.14,1.8097,-0.1756,9.5499,0.9048,-0.1412,-0.187
36.16,0.701,-0.2451,8.5571,0.6966,-0.3447,-0.1744
36.18,0.8435,-0.079,9.0893,0.4117,-0.2483,-0.1128
36.2,0.0035,-0.2861,8.8703,0.0556,-0.043,-0.089
36.22,0.5008,-0.1171,8.9478,-0.0944,0.0472,-0.0121
36.24,0.227,-0.0422,9.3925,-0.2144,0.146,-0.0077
36.26,-0.076,-0.2137,9.1714,-0.2179,0.0871,0.0334
36.28,0.183,-0.4409,9.7831,-0.1375,0.0395,0.0212
36.3,0.2289,-0.5835,9.6139,-0.0844,-0.0747,-0.0746
36.32,0.3935,-0.1873,9.7872,-0.037,-0.072,0.0115
36.34,0.5949,-0.2545,9.8232,0.0414,0.0013,-0.0202
36.36,0.3279,-0.2799,9.7253,0.0356,-0.0412,-0.0169
36.38,0.126,-0.5202,9.972,0.0017,-0.0309,0.0596
36.4,0.5353,-0.6053,9.7836,0.1033,0.0144,0.0108
36.42,0.532,-0.3141,9.2237,0.1572,-0.0055,0.0199
36.44,0.6011,-0.0954,9.7709,0.2253,0.1072,0.0184
36.46,0.3167,-0.3249,9.1369,0.2364,0.154,0.001
36.48,0.4522,-0.3826,8.9097,0.0891,0.0399,-0.049
36.5,0.2488,-0.7117,8.7197,-0.1968,-0.1701,-0.1337
36.52,0.2177,-0.3352,9.1143,-0.511,-0.33,-0.1905
36.54,-0.5422,-0.361,8.9416,-0.7551,-0.3598,-0.1608
36.56,-0.8633,-0.3585,9.4924,-0.8188,-0.1086,-0.1999
36.58,-0.3774,0.0458,11.199,-0.6266,0.1865,-0.1425
36.6,0.2587,0.4242,12.3238,-0.1013,0.4997,0.0066
36.62,1.1274,0.2131,11.9633,0.3674,0.3272,0.0791
36.64,1.8253,0.3255,10.7836,0.7581,0.0725,0.1562
36.66,0.9943,-0.3485,9.016,0.8316,-0.2552,0.1992
36.68,0.6814,-0.1454,8.7483,0.6496,-0.3801,0.1677
36.7,0.3986,-0.5695,8.813,0.3906,-0.2768,0.1266
36.72,0.343,-0.5481,9.1726,0.024,-0.0729,0.07
36.74,0.301,-0.2506,9.366,-0.1502,0.0814,0.0154
36.76,-0.0716,-0.506,9.1316,-0.2997,0.1161,0.0097
36.78,0.2373,-0.3301,9.7102,-0.1543,0.0698,-0.0317
36.8,0.3932,0.0137,9.7593,-0.1197,0.0539,0.013
36.82,0.3804,-0.2955,9.7647,-0.042,-0.0681,-0.0528
36.84,0.0884,-0.3651,9.9162,0.017,-0.0417,0.0002
36.86,0.1177,-0.1551,9.6284,-0.047,-0.0358,-0.0368
36.88,0.5599,0.2531,9.9889,0.0114,0.0158,-0.036
36.9,0.5108,-0.1873,9.8221,-0.0336,0.0099,0.0002
36.92,0.4548,-0.0174,9.6771,0.0151,0.04,-0.0187
36.94,0.4252,0.0027,9.661,-0.0166,-0.0322,0.0133
36.96,0.1132,-0.3828,9.6104,-0.0287,-0.0705,-0.0468
36.98,0.3611,-0.3391,9.94,0.0323,-0.0442,-0.0343
37.0,0.5347,-0.1425,9.7813,0.0919,-0.0283,-0.0136
37.02,0.637,0.045,9.6042,0.1686,0.0629,0.0105
37.04,0.6222,0.046,9.569,0.1726,0.0958,-0.0133
37.06,0.6197,-0.097,9.444,0.1376,0.0927,0.0142
37.08,0.5142,-0.1376,9.2922,0.0002,-0.0383,0.0821
37.1,0.486,-0.0355,9.1591,-0.2186,-0.1854,0.1387
37.12,0.1656,0.0519,9.3129,-0.5467,-0.3206,0.1935
37.14,-0.0644,-0.049,9.712,-0.7306,-0.1903,0.1678
37.16,-0.5992,-0.5251,10.0446,-0.7065,0.0021,0.1474
37.18,-0.2744,-0.4087,11.4063,-0.3987,0.2849,0.0967
37.2,0.3669,-0.5147,12.3177,0.0628,0.4081,-0.0211
37.22,1.6883,-0.3816,11.8256,0.4999,0.2135,-0.1079
37.24,1.5755,-0.1587,10.0295,0.8019,-0.0941,-0.1558
37.26,1.1761,-0.2481,9.0725,0.732,-0.3208,-0.1814
37.28,0.9404,-0.0283,9.2822,0.5573,-0.2808,-0.1621
37.3,0.5954,0.2543,9.3176,0.1843,-0.1702,-0.1162
37.32,0.6466,0.1917,9.5804,-0.0399,0.0278,-0.0521
37.34,0.3291,0.2422,9.7444,-0.1633,0.1313,0.0381
37.36,-0.0254,-0.2633,9.2393,-0.2635,0.0355,-0.0158
37.38,0.4443,0.0558,10.0085,-0.1138,-0.0127,0.0428
37.4,0.6168,-0.1321,10.0335,-0.0671,-0.0527,0.0375
37.42,0.0504,-0.479,9.9149,0.0091,-0.0441,0.0217
37.44,0.5043,-0.0056,9.9603,0.0371,-0.0028,0.0438
37.46,0.5614,-0.0235,9.8579,0.0229,-0.0286,-0.021
37.48,0.4924,-0.2573,10.1345,0.0495,-0.0364,0.048
37.5,0.6375,-0.1253,10.1986,0.1159,-0.0757,-0.0197
37.52,0.8846,0.0056,10.0413,0.2167,0.0397,0.0656
37.54,0.9795,-0.0323,9.8834,0.3257,0.1218,0.0581
37.56,0.8577,-0.2392,9.3089,0.3188,0.1168,0.0162
37.58,0.5382,-0.1613,9.1989,0.2305,0.1305,0.0218
37.6,0.4042,0.0022,9.0336,-0.1108,-0.0657,-0.0916
37.62,0.314,-0.0965,8.8933,-0.542,-0.3494,-0.1752
37.64,-0.3263,-0.0327,8.8452,-0.9389,-0.4883,-0.2617
37.66,-0.8432,0.3464,9.2843,-1.1089,-0.2636,-0.2781
37.68,-0.6956,0.729,11.4107,-0.8885,0.1918,-0.1977
37.7,-0.6189,0.0567,12.8284,-0.3639,0.569,-0.1015
37.72,1.0256,0.1269,13.3605,0.3058,0.5506,0.0438
37.74,2.0699,0.3366,11.6881,0.9329,0.2284,0.1332
37.76,1.8781,0.4463,9.6808,1.1569,-0.2189,0.231
37.78,0.9941,-0.3353,8.5676,0.9743,-0.4683,0.2283
37.8,0.6248,-0.2529,8.7516,0.6335,-0.3791,0.1738
37.82,0.4241,-0.259,8.775,0.1462,-0.1805,0.0979
37.84,0.681,-0.0115,9.4298,-0.109,0.1493,0.0553
37.86,0.4209,-0.2603,9.3147,-0.2836,0.1617,-0.0013
37.88,0.2814,-0.4386,9.6713,-0.2452,0.0632,-0.0467
37.9,0.3801,-0.2148,9.8887,-0.1204,0.0526,-0.0364
37.92,0.232,-0.3893,9.6813,-0.1296,-0.0652,-0.0713
37.94,0.5027,-0.2165,9.8475,-0.0266,-0.0716,-0.0491
37.96,0.7884,0.2733,10.4342,0.0939,-0.0009,0.0123
37.98,0.2984,-0.3374,9.7391,0.0307,-0.0814,-0.0202
38.0,0.1649,-0.1481,9.6675,-0.0053,-0.0147,-0.0256
38.02,0.4639,-0.2026,9.79,-0.0373,-0.0627,0.0105
38.04,0.6789,-0.4585,9.9669,0.0029,-0.0207,-0.0197
38.06,0.5455,-0.1436,9.7322,0.072,-0.0197,-0.0639
38.08,0.7373,-0.2874,9.6848,0.2055,0.039,-0.0496
38.1,0.6933,-0.1447,9.3502,0.2414,0.0802,-0.0572
38.12,0.4721,-0.4072,9.169,0.265,0.0998,-0.0308
38.14,0.577,0.0712,9.046,0.1196,0.0496,0.0582
38.16,0.2767,-0.2671,8.798,-0.1789,-0.1471,0.0722
38.18,-0.106,-0.3135,8.7278,-0.5515,-0.349,0.1782
38.2,-0.6918,-0.3036,8.753,-0.8716,-0.3245,0.2087
38.22,-0.9162,-0.6829,9.3214,-0.9363,-0.1714,0.1304
38.24,-0.5678,-0.9314,10.9441,-0.727,0.2606,0.1714
38.26,0.4186,-0.5116,12.9681,-0.1834,0.5464,0.0406
38.28,0.7009,-0.9731,12.173,0.3875,0.4513,-0.1091
38.3,1.313,-0.8946,10.2439,0.8284,0.067,-0.2001
38.32,1.7001,-0.645,9.0097,0.9584,-0.2699,-0.2127
38.34,0.8999,-0.2221,8.7133,0.7335,-0.4203,-0.2467
38.36,0.5601,0.0649,8.882,0.4335,-0.2898,-0.2152
38.38,0.029,-0.2892,8.5694,0.0699,-0.0811,-0.1138
38.4,0.427,-0.0262,9.0038,-0.1524,0.1014,-0.0182
38.42,0.2964,-0.182,9.1875,-0.2537,0.1174,0.0441
38.44,0.2788,-0.322,9.4363,-0.2262,0.0737,0.0544
38.46,0.2305,-0.3672,9.4619,-0.1581,0.0037,0.0088
38.48,0.1777,-0.4379,9.8778,-0.0328,-0.0541,0.0079
38.5,0.3701,0.0056,10.0932,0.036,-0.0185,0.0297
38.52,0.5075,-0.0802,10.0764,0.055,0.0141,0.0311
38.54,0.4962,-0.1657,10.0047,0.0263,0.0143,0.0193
38.56,0.6312,0.0103,10.0077,0.0536,0.0049,0.0283
38.58,0.5181,-0.3688,9.4802,-0.0004,-0.0484,-0.0054
38.6,0.1234,-0.3226,9.8219,0.0007,-0.0744,0.0462
38.62,0.5183,-0.3433,9.9216,0.0984,-0.0256,0.0282
38.64,0.4946,-0.4162,9.5298,0.1484,0.0235,0.028
38.66,0.5447,-0.052,9.7395,0.2619,0.1186,0.0482
38.68,0.6883,-0.2938,9.1079,0.2485,0.1332,-0.0101
38.7,0.3013,-0.6311,8.9033,0.1221,0.0383,-0.0627
38.72,0.5691,-0.2322,8.9719,-0.1283,-0.1021,-0.0688
38.74,-0.0573,-0.2287,8.7883,-0.4502,-0.3335,-0.1508
38.76,-0.5663,-0.179,8.806,-0.746,-0.4001,-0.1706
38.78,-1.0218,-0.0819,9.3482,-0.8521,-0.2247,-0.1869
38.8,-0.4636,0.2048,10.9811,-0.7237,0.1672,-0.1435
38.82,-0.4588,-0.2724,12.2621,-0.2746,0.4352,-0.0446
38.84,0.7511,0.3208,12.7538,0.2849,0.4575,0.0486
38.86,1.6759,0.0823,11.3035,0.7658,0.1866,0.1604
38.88,1.544,-0.0805,9.4953,0.9568,-0.1966,0.2307
38.9,1.2051,-0.0118,9.2341,0.8695,-0.3693,0.1973
38.92,0.6351,-0.2957,9.1465,0.4999,-0.2872,0.1591
38.94,0.5171,-0.2715,9.1256,0.1188,-0.0959,0.109
38.96,0.487,-0.2456,9.0042,-0.0728,0.0994,0.0354
38.98,0.2396,-0.4881,9.3632,-0.2074,0.1302,-0.0057
39.0,0.1614,-0.2867,9.3303,-0.2136,0.0485,-0.0031
39.02,-0.0023,-0.6076,9.3581,-0.1641,0.0051,-0.0784
39.04,0.3344,-0.4885,10.1731,-0.014,-0.0002,-0.011
39.06,0.1945,-0.2118,9.7429,0.0001,-0.0323,0.0233
39.08,0.5665,0.1779,9.8934,0.0417,-0.0207,0.0311
39.1,0.4515,0.0197,9.9566,0.0206,0.003,0.0079
39.12,0.3331,-0.2989,9.8478,-0.0042,0.0045,-0.0126
39.14,0.4327,-0.3312,9.7503,-0.0215,-0.0388,-0.0231
39.16,0.6188,-0.2044,9.769,-0.0172,-0.031,-0.0097
39.18,0.4064,-0.1482,9.7834,0.0278,-0.0656,0.0331
39.2,0.4514,0.198,10.0711,0.0159,-0.0475,-0.0229
39.22,0.4387,-0.3801,9.8839,0.1033,-0.0669,-0.0318
39.24,0.7676,0.1449,9.8624,0.1923,0.0709,0.0358
39.26,0.6995,0.1633,9.4226,0.2777,0.1522,-0.0036
39.28,0.5566,-0.1329,9.3736,0.2199,0.0852,-0.0099
39.3,0.4069,0.1776,9.2325,0.065,-0.0364,0.0221
39.32,0.2323,-0.2001,8.7349,-0.3016,-0.2448,0.122
39.34,-0.2067,-0.2671,8.5139,-0.6861,-0.3984,0.1519
39.36,-0.6908,-0.4692,8.8123,-0.938,-0.3527,0.206
39.38,-0.6299,0.0212,10.2114,-0.853,-0.0053,0.149
39.4,-0.7884,-0.7552,11.7929,-0.5474,0.3408,0.0889
39.42,0.8836,-0.3306,13.4927,0.0031,0.4828,0.0261
39.44,1.9622,-0.2909,12.1647,0.4985,0.3494,-0.106
39.46,1.7158,-0.3246,10.2857,0.8768,0.0232,-0.1791
39.48,1.4556,0.0404,9.2662,0.9081,-0.309,-0.2198
39.5,0.7465,0.0182,9.2403,0.6738,-0.3557,-0.1412
39.52,0.5812,-0.1761,9.3406,0.3508,-0.2358,-0.1408
39.54,0.2386,-0.0606,9.4183,-0.0155,0.0001,-0.0937
39.56,0.2405,0.4097,9.635,-0.1477,0.1492,-0.0019
39.58,0.5103,0.1809,9.5694,-0.1746,0.1451,0.0186
39.6,0.3203,0.0268,9.8879,-0.1971,0.0519,0.0236
39.62,0.5357,-0.221,9.9674,-0.0764,-0.0548,-0.0025
39.64,0.751,-0.0702,10.1909,0.0253,-0.0452,0.0164
39.66,0.5016,-0.0484,10.1294,-0.0498,-0.0316,0.0064
39.68,0.4757,-0.065,9.725,0.0227,-0.0231,-0.0084
39.7,0.7342,0.0584,9.803,0.0651,-0.0018,-0.0237
39.72,0.5496,-0.1548,9.6124,0.005,-0.0343,0.0361
39.74,0.3581,0.135,10.0807,0.0717,0.0009,0.0276
39.76,0.3541,-0.2659,9.5408,0.0044,-0.0527,-0.0
39.78,0.301,-0.0826,10.1168,0.0389,-0.069,0.0151
39.8,0.8263,0.0827,10.0904,0.1518,0.0013,0.0274
39.82,0.6449,-0.5896,9.9543,0.2061,0.106,0.0306
39.84,0.4272,-0.2579,9.6261,0.2363,0.097,-0.0151
39.86,0.6574,-0.0843,9.351,0.1843,0.0828,0.0235
39.88,0.592,-0.0555,8.9326,-0.0161,-0.0563,-0.0601
39.9,0.3115,-0.273,8.8275,-0.3512,-0.2783,-0.1373
39.92,-0.1666,-0.068,8.9972,-0.6456,-0.3749,-0.1732
39.94,-0.4657,0.3106,9.2338,-0.818,-0.2926,-0.1947
39.96,-0.5119,0.4707,11.0334,-0.6348,0.1565,-0.1713
39.98,-0.4437,0.2655,12.1739,-0.3936,0.3876,-0.0963
40.0,0.8853,0.5045,12.9538,0.1787,0.439,0.0515
40.02,1.6842,0.1655,11.3218,0.6093,0.1927,0.1296
40.04,1.879,0.2274,9.9405,0.8862,-0.0616,0.1896
40.06,0.9707,-0.2141,8.9055,0.7932,-0.3423,0.2193
40.08,0.7191,-0.0912,9.1539,0.5303,-0.3455,0.2007
40.1,0.3716,-0.5435,8.9817,0.1623,-0.1663,0.1029
40.12,0.2351,-0.4541,8.9168,-0.1291,0.0672,0.0314
40.14,0.1414,-0.2153,9.3298,-0.2327,0.111,0.016
40.16,-0.0297,-0.0525,9.7614,-0.2021,0.0533,-0.0192
40.18,0.4248,-0.2111,9.9529,-0.1025,0.0459,-0.0149
40.2,0.5569,0.2114,10.1822,-0.046,-0.0072,-0.0132
40.22,0.1048,-0.0874,9.824,-0.0281,-0.0174,-0.0161
40.24,0.4065,-0.3187,9.7385,0.0123,-0.0356,-0.0077
40.26,0.1196,-0.3272,9.7424,0.035,-0.0219,-0.0425
40.28,0.3482,-0.5025,9.8048,0.054,0.0234,0.036
40.3,0.7174,-0.0378,10.1315,0.003,0.051,0.0338
40.32,0.6521,-0.043,9.819,0.0016,0.0187,-0.0044
40.34,0.3344,-0.4363,9.7486,0.0144,-0.0342,-0.0506
40.36,0.3565,-0.1874,9.6297,-0.0057,-0.0656,-0.0477
40.38,0.9287,-0.0661,9.9313,0.1498,0.0336,-0.0139
40.4,0.6715,-0.1293,9.375,0.159,-0.0239,-0.0242
40.42,0.2933,-0.5472,9.1224,0.1589,0.0518,-0.0786
40.44,0.513,0.1352,9.2479,0.1887,0.1364,0.0474
40.46,0.6249,0.2838,9.433,0.0453,0.0674,0.0896
40.48,0.2614,0.0092,8.6991,-0.2697,-0.1604,0.111
40.5,0.1733,-0.1753,9.0546,-0.5394,-0.3366,0.1972
40.52,-0.2056,-0.1641,8.9389,-0.8288,-0.327,0.2179
40.54,-0.939,-0.6895,9.7154,-0.7764,-0.0264,0.1836
40.56,-0.4754,-0.9152,11.6043,-0.4715,0.2948,0.1051
40.58,-0.1645,-0.5774,12.3131,0.0003,0.4668,0.0251
40.6,1.2244,-0.249,11.8961,0.5175,0.3031,-0.067
40.62,1.3901,-0.666,9.8608,0.8368,-0.0336,-0.1934
40.64,1.3735,-0.4164,8.9268,0.8117,-0.332,-0.2002
40.66,0.9537,-0.0035,9.088,0.6686,-0.3679,-0.1709
40.68,0.2935,-0.3326,8.6537,0.2635,-0.2075,-0.1543
40.7,0.5946,-0.2536,9.2536,0.0251,0.0012,-0.0424
40.72,0.6258,0.1774,9.4415,-0.1145,0.1465,0.054
40.74,0.2929,-0.3915,9.412,-0.2155,0.1205,-0.0201
40.76,0.0956,-0.0341,9.5063,-0.1265,0.0379,0.0325
40.78,0.1696,-0.3175,9.6809,-0.0589,0.0202,0.0087
40.8,0.249,-0.6062,9.9121,-0.0188,-0.0312,0.017
40.82,0.2659,-0.2098,9.8791,-0.0204,-0.0254,-0.0097
40.84,0.6405,-0.3247,10.0203,0.0283,-0.0216,-0.0147
40.86,0.2199,-0.2024,9.691,-0.003,0.0051,0.0166
40.88,0.6096,-0.1757,9.7822,0.0352,-0.0411,0.0063
40.9,0.5101,-0.3596,9.8473,0.0229,-0.0229,0.0114
40.92,0.499,-0.0845,9.8614,0.09,-0.0265,0.0232
40.94,0.4552,-0.1985,9.6463,0.2181,0.0337,0.0277
40.96,0.6213,0.0457,9.4443,0.2677,0.168,0.0031
40.98,0.644,-0.1973,9.5329,0.2436,0.1668,0.0168
41.0,0.0975,-0.294,8.6773,0.0313,0.0272,-0.1019
41.02,0.361,-0.5158,8.8395,-0.2312,-0.1817,-0.1159
41.04,-0.0788,-0.3426,8.8002,-0.6443,-0.3985,-0.1641
41.06,-0.3592,-0.2166,8.82,-0.8632,-0.3342,-0.2109
41.08,-0.6591,0.2582,9.9447,-0.8392,-0.06,-0.1752
41.1,-0.7653,-0.179,11.5756,-0.5972,0.2942,-0.1476
41.12,0.5081,0.5149,13.669,-0.0669,0.5251,-0.0199
41.14,0.961,0.2881,12.0824,0.535,0.4134,0.0665
41.16,2.0014,-0.0973,10.1464,0.8497,0.0334,0.1545
41.18,1.2471,-0.1298,8.8811,0.9227,-0.3281,0.2012
41.2,1.1154,-0.3555,8.6239,0.7117,-0.4138,0.1846
41.22,0.4546,-0.4798,8.7483,0.3605,-0.2301,0.155
41.24,0.1044,-0.5421,8.9206,0.0241,-0.0285,0.0598
41.26,0.5123,-0.2706,9.1194,-0.2059,0.1121,-0.0035
41.28,-0.2513,-0.4439,9.0518,-0.2709,0.1289,-0.0059
41.3,-0.0027,-0.4562,9.3842,-0.2369,0.0571,-0.0763
41.32,0.2415,-0.1671,9.8014,-0.1112,-0.027,-0.0337
41.34,0.3951,-0.5925,9.7066,-0.0856,-0.0935,-0.0189
41.36,0.4559,-0.1616,9.7297,-0.0223,-0.0659,-0.0533
41.38,0.8883,-0.1222,10.0708,0.0065,0.0079,0.009
41.4,0.194,-0.09,9.9537,-0.0146,-0.0208,-0.0017
41.42,0.3463,0.1023,9.9494,0.0291,-0.0132,0.0024
41.44,0.6047,0.0542,10.4206,0.0845,-0.0015,0.0119
41.46,0.944,-0.0853,10.1848,0.1485,-0.0016,0.0009
41.48,0.7035,-0.2996,9.8083,0.2291,0.0396,-0.0851
41.5,0.8181,0.2037,9.772,0.2647,0.1278,-0.0609
41.52,0.8746,0.1259,9.4021,0.2473,0.1738,-0.0252
41.54,0.4828,0.247,9.3318,0.097,0.0557,0.0772
41.56,0.5581,0.3954,9.4758,-0.13,-0.1328,0.197
41.58,0.1418,-0.2407,8.4888,-0.6421,-0.4241,0.1543
41.6,-0.3615,-0.6572,8.8983,-0.9319,-0.3936,0.2132
41.62,-0.6337,-0.1915,9.8834,-0.9071,-0.1149,0.2051
41.64,-0.3387,-0.1801,12.282,-0.7047,0.2709,0.1535
41.66,0.3402,-0.7521,13.6888,-0.1547,0.4974,0.0222
41.68,1.1673,-0.8752,12.3798,0.4363,0.4827,-0.1033
41.7,2.0243,-0.2345,10.8819,0.8735,0.0468,-0.1953
41.72,1.9076,-0.5201,9.5389,1.0095,-0.2922,-0.21
41.74,1.6351,0.065,9.208,0.7972,-0.4152,-0.1933
41.76,0.6792,0.1222,8.9848,0.4497,-0.3354,-0.1517
41.78,0.7018,0.5102,9.3674,0.1526,-0.0735,-0.0496
41.8,0.6167,-0.0115,9.2828,-0.1585,0.1409,-0.0301
41.82,-0.0365,-0.1955,9.2204,-0.3087,0.1473,-0.022
41.84,0.1654,-0.2254,9.9698,-0.2111,0.0687,0.0067
41.86,0.1305,-0.213,9.7813,-0.1262,-0.0581,-0.0242
41.88,0.2417,0.1059,10.1244,-0.0176,-0.0373,0.0481
41.9,-0.0884,0.0031,9.9069,-0.0062,-0.0241,-0.0072
41.92,0.5417,-0.0977,9.9557,0.02,0.0248,0.0081
41.94,0.3325,-0.5876,9.825,0.0248,-0.0218,0.0082
41.96,0.5918,-0.3595,9.8868,0.0116,-0.0653,0.0098
41.98,0.4669,-0.0853,10.0284,0.0259,-0.0005,0.0126
42.0,0.2189,0.0242,9.9692,0.0963,-0.0519,0.0567
42.02,0.652,-0.4521,9.5455,0.1472,-0.0399,0.0027
42.04,0.8248,0.094,9.8075,0.2855,0.0921,-0.0217
42.06,0.9134,-0.2069,9.6453,0.2338,0.1318,0.029
42.08,0.493,-0.3358,9.338,0.1584,0.0936,-0.0097
42.1,0.1436,-0.6533,8.8523,-0.0872,-0.0931,-0.1678
42.12,0.0546,-0.0314,8.9858,-0.4159,-0.2996,-0.1618
42.14,-0.1019,0.2153,9.1945,-0.7261,-0.324,-0.167
42.16,-0.8874,-0.1341,9.3394,-0.879,-0.2196,-0.2052
42.18,-0.7938,0.627,10.9874,-0.7978,0.1157,-0.144
42.2,-0.1131,0.3624,12.527,-0.3007,0.503,-0.0698
42.22,0.9326,0.2911,12.8304,0.2026,0.4639,0.0135
42.24,1.8956,0.251,11.4379,0.7372,0.2247,0.1445
42.26,1.694,0.0815,9.6694,0.9753,-0.1717,0.2102
42.28,1.0816,-0.2369,8.9548,0.8728,-0.377,0.1973
42.3,0.5159,-0.6367,8.5682,0.4798,-0.354,0.1961
42.32,0.8658,0.0117,9.008,0.2011,-0.1169,0.1367
42.34,0.2617,-0.5231,9.1103,-0.1283,0.046,0.0251
42.36,0.3721,-0.2916,9.343,-0.2234,0.188,0.0089
42.38,-0.1776,-0.14,9.451,-0.2428,0.0881,-0.0307
42.4,0.0768,-0.2362,9.4076,-0.111,0.0279,0.0181
42.42,0.142,0.1191,10.2348,0.0216,-0.0122,-0.0369
42.44,0.1862,-0.1514,9.8215,-0.0411,-0.0081,-0.0357
42.46,0.7994,0.0473,10.0615,0.0193,0.0117,-0.0075
42.48,0.2138,0.037,9.8463,0.0043,-0.012,-0.027
42.5,0.1011,-0.2264,9.5206,-0.0168,-0.0012,-0.0149
42.52,0.3709,-0.4679,9.6829,0.0578,-0.046,-0.051
42.54,0.4985,-0.2819,10.1908,0.0686,-0.0061,-0.0109
42.56,0.4103,-0.1576,9.9709,0.1425,-0.0045,-0.0198
42.58,0.6355,0.002,9.6496,0.2329,0.0578,0.0314
42.6,0.1258,-0.1678,9.3033,0.2437,0.11,-0.0535
42.62,0.6646,0.0811,9.2375,0.2268,0.1575,0.0445
42.64,0.2822,-0.0092,9.1192,-0.0045,-0.0386,0.0951
42.66,0.3868,0.1591,8.943,-0.34,-0.2045,0.1816
42.68,-0.1345,0.0605,8.9873,-0.6689,-0.3405,0.2267
42.7,-0.3749,-0.2468,9.3162,-0.8208,-0.2509,0.2351
42.72,-0.9337,-0.499,10.417,-0.7419,0.1275,0.1931
42.74,-0.471,-0.8813,12.4894,-0.4099,0.4142,0.0952
42.76,0.8838,-0.476,13.3466,0.1453,0.4834,-0.0368
42.78,0.985,-0.6858,11.2092,0.6126,0.2657,-0.1185
42.8,1.0935,-0.6378,9.6665,0.8816,-0.0996,-0.2061
42.82,1.2285,-0.2815,8.7678,0.8627,-0.3641,-0.2082
42.84,0.7204,-0.1513,8.8724,0.5815,-0.2801,-0.1657
42.86,0.2877,-0.4777,8.9395,0.2581,-0.1384,-0.1332
42.88,0.1856,-0.3339,8.9595,-0.0998,0.0479,-0.0787
42.9,0.0688,-0.2829,9.3569,-0.2205,0.1105,-0.0284
42.92,0.0895,-0.2841,9.163,-0.2104,0.1095,-0.0192
42.94,0.0511,-0.1999,9.5504,-0.1769,0.0116,0.006
42.96,0.4107,-0.4889,9.9225,-0.058,-0.0121,0.0442
42.98,0.6532,-0.0723,10.2623,0.0138,-0.002,-0.0167
43.0,0.5303,-0.2411,10.1024,0.0334,-0.0747,0.0007
43.02,0.3938,-0.1538,10.0548,0.0722,-0.0316,-0.0061
43.04,0.5212,-0.2035,9.892,0.0326,-0.0032,-0.0138
43.06,0.592,-0.3117,10.0198,0.0778,0.0058,-0.0084
43.08,0.3837,0.1655,10.1662,0.0542,0.0608,0.0133
43.1,0.1913,-0.3163,9.4791,-0.022,-0.0204,-0.0015
43.12,0.4673,-0.085,9.779,0.0106,-0.0039,-0.0137
43.14,0.7162,-0.2226,9.8974,0.0671,0.0538,0.0094
43.16,0.1015,-0.3073,9.5416,-0.0255,-0.0391,0.0263
43.18,0.2278,-0.4047,9.6968,0.0068,0.0302,-0.0036
43.2,0.2088,-0.1886,9.7479,0.0044,-0.0201,0.0119
43.22,0.1127,-0.1697,9.6342,0.0176,-0.0141,-0.0007
43.24,0.3249,-0.1509,10.021,0.0367,0.0307,0.0372
43.26,0.3009,-0.4555,9.8531,0.0161,-0.0332,-0.0431
43.28,-0.1877,-0.5463,9.4611,-0.041,-0.0183,-0.0245
43.3,0.3927,-0.1353,9.8655,0.0068,0.0138,-0.0532
43.32,0.6109,-0.1362,9.9548,0.0333,0.015,-0.0124
43.34,0.4738,-0.2792,9.8659,0.0001,-0.0427,-0.0173
43.36,0.6005,-0.2893,9.7565,0.0252,-0.0081,0.0065
43.38,0.3227,-0.5059,9.6455,0.0008,-0.0337,-0.0109
43.4,0.2349,-0.3112,9.7655,-0.0212,-0.018,0.0019
43.42,0.5564,-0.403,9.7266,0.0264,-0.0174,0.0239
43.44,0.3705,-0.2064,9.9163,0.0138,0.0107,-0.0194
43.46,0.5722,0.0042,10.052,0.0288,0.0082,0.0196
43.48,0.2311,-0.1451,9.6904,-0.0269,-0.0053,-0.0273
43.5,0.5351,-0.1612,10.1128,0.0455,0.0229,0.0131
43.52,0.2536,-0.0766,9.8305,-0.0072,0.0439,0.0021
43.54,0.4421,-0.4037,10.0034,0.0127,0.0117,-0.0103
43.56,0.5054,-0.1821,9.8249,-0.0148,-0.006,-0.0028
43.58,0.3904,0.1698,9.8595,0.0451,0.0139,-0.0065
43.6,0.4607,-0.2741,9.7585,-0.0009,-0.004,0.0191
43.62,0.3379,-0.1731,9.7025,-0.0213,-0.0134,-0.0065
43.64,0.3819,-0.335,9.7422,-0.0011,0.0244,-0.0062
43.66,0.5702,-0.115,9.9128,0.0232,0.0082,-0.0016
43.68,0.5806,-0.047,9.9518,0.0132,0.0054,-0.0061
43.7,0.7002,0.0595,10.0421,0.012,0.0327,-0.0011
43.72,0.2685,-0.1867,9.9092,0.0261,0.0304,-0.0023
43.74,0.4159,-0.023,10.0462,0.013,-0.0034,0.0119
43.76,0.4016,0.0309,9.9233,0.014,0.0245,0.0188
43.78,0.161,-0.0915,9.8009,-0.0016,0.0007,0.0002
43.8,0.51,-0.0381,9.8195,0.0387,0.0196,-0.0034
43.82,0.0687,-0.3777,9.6161,0.0045,-0.0014,0.0031
43.84,0.4901,0.0076,9.8881,0.0305,0.0187,0.0099
43.86,0.338,-0.2517,9.666,-0.0198,-0.0155,-0.0096
43.88,0.4784,-0.269,9.7714,0.0146,0.0178,0.0005
43.9,0.2789,-0.3067,9.6934,-0.0049,-0.0172,-0.0082
43.92,0.4444,-0.1312,10.03,0.0228,0.0136,0.0148
43.94,0.2015,-0.3222,9.5865,-0.0295,-0.0362,-0.0097
43.96,0.3821,-0.3082,9.8109,0.0177,0.0138,0.0058
43.98,0.4262,-0.2193,9.8527,0.0237,0.0157,0.0029
44.0,0.4613,-0.2548,9.7477,-0.0041,-0.0079,-0.0074
44.02,0.511,-0.1739,9.8916,0.0036,-0.0017,0.0026
44.04,0.3851,0.0418,9.9205,0.0253,0.0197,0.006
44.06,0.3858,-0.29,9.6871,-0.0255,-0.0205,-0.0125
44.08,0.4049,-0.1038,9.8106,0.0014,-0.0023,-0.0024
44.1,0.3543,-0.2873,9.6006,-0.0096,-0.0046,-0.0029
44.12,0.3673,-0.2664,9.7153,-0.0116,-0.016,-0.0105
44.14,0.5982,-0.141,9.8322,0.0134,0.0122,0.0045
44.16,0.1877,-0.3772,9.4291,-0.0379,-0.029,-0.023
44.18,0.3515,-0.2097,9.7762,-0.0073,-0.0079,-0.0021
44.2,0.5152,-0.0999,9.8001,0.0088,0.0071,0.005
44.22,0.485,-0.1474,9.8797,0.0067,0.0042,0.0042
44.24,0.4587,-0.1755,9.8293,0.0175,0.0129,0.0083
44.26,0.332,-0.2471,9.6722,-0.0144,-0.0108,-0.0072
44.28,0.1923,-0.4727,9.4921,-0.0466,-0.035,-0.0233
44.3,0.4717,-0.1278,9.7347,0.0019,0.0014,0.0009
44.32,0.3992,-0.2199,9.6153,-0.0153,-0.0115,-0.0077
44.34,0.4561,-0.1713,9.7323,0.001,0.0008,0.0005
44.36,0.366,-0.4023,9.7374,-0.0044,-0.0033,-0.0022
44.38,0.3428,-0.2385,9.8542,-0.0045,-0.0034,-0.0022
44.4,0.3328,-0.2712,9.7806,-0.0062,-0.0047,-0.0031
44.42,0.1001,-0.5306,9.3339,-0.063,-0.0473,-0.0315
44.44,0.4094,-0.2165,9.8767,-0.001,-0.0008,-0.0005
44.46,0.5631,-0.1592,9.9222,0.0187,0.014,0.0093
44.48,0.3737,-0.1683,9.8642,0.009,0.0067,0.0045
44.5,0.6093,-0.0548,10.0082,0.0238,0.0179,0.0119
44.52,0.3315,-0.2754,9.6751,-0.029,-0.0218,-0.0145
44.54,0.3278,-0.1284,9.7269,0.0018,0.0013,0.0009
44.56,0.373,-0.2666,9.622,-0.0123,-0.0092,-0.0062
44.58,0.3906,-0.2798,9.66,-0.0102,-0.0076,-0.0051
44.6,0.3823,-0.2063,9.7674,-0.0047,-0.0035,-0.0023
44.62,0.4628,-0.1436,9.9366,0.0216,0.0162,0.0108
44.64,0.514,-0.0639,10.0625,0.034,0.0255,0.017
44.66,0.403,-0.2069,9.6698,-0.0195,-0.0146,-0.0097
44.68,0.1164,-0.5264,9.4362,-0.0405,-0.0304,-0.0202
44.7,0.3439,-0.3677,9.732,-0.017,-0.0128,-0.0085
44.72,0.4493,-0.2366,9.7595,0.0013,0.001,0.0007
44.74,0.3784,-0.2812,9.6162,-0.0205,-0.0154,-0.0103
44.76,0.6628,-0.041,10.1258,0.0439,0.0329,0.0219
44.78,0.5323,-0.0872,9.9222,0.0138,0.0104,0.0069
44.8,0.388,-0.3862,9.6008,-0.0192,-0.0144,-0.0096
44.82,0.3555,-0.3219,9.7917,-0.0189,-0.0142,-0.0095
44.84,0.5422,-0.103,9.8854,0.0199,0.0149,0.0099
44.86,0.2869,-0.2051,9.6841,-0.0183,-0.0138,-0.0092
44.88,0.388,-0.1523,9.8669,0.004,0.003,0.002
44.9,0.5139,-0.1081,9.9319,0.0279,0.0209,0.014
44.92,0.2604,-0.3846,9.6277,-0.0287,-0.0215,-0.0144
44.94,0.2079,-0.1963,9.5102,-0.0332,-0.0249,-0.0166
44.96,0.3842,-0.3124,9.8447,0.0061,0.0045,0.003
44.98,0.43,-0.3303,9.7081,-0.0045,-0.0034,-0.0022
