time_s,acc_x,acc_y,acc_z,gyro_x,gyro_y,gyro_z
0.0,0.5946,-0.772,9.7889,0.0092,0.0069,0.0046
0.02,0.3803,-0.9075,9.6237,-0.0249,-0.0186,-0.0124
0.04,0.3863,-0.7652,9.7176,0.004,0.003,0.002
0.06,0.476,-0.839,9.7311,0.0008,0.0006,0.0004
0.08,0.3796,-0.8119,9.7915,-0.0116,-0.0087,-0.0058
0.1,0.5261,-0.8723,9.7698,-0.0045,-0.0034,-0.0022
0.12,0.3627,-0.8404,9.6278,-0.018,-0.0135,-0.009
0.14,0.4109,-0.8755,9.6082,-0.0279,-0.0209,-0.014
0.16,0.3207,-0.7501,9.745,-0.0073,-0.0055,-0.0036
0.18,0.2353,-0.9014,9.5029,-0.0328,-0.0246,-0.0164
0.2,0.46,-0.9067,9.6353,-0.0198,-0.0148,-0.0099
0.22,0.5371,-0.7777,9.8026,0.005,0.0037,0.0025
0.24,0.5457,-0.7647,9.8611,0.015,0.0112,0.0075
0.26,0.5104,-0.872,9.8322,0.0086,0.0064,0.0043
0.28,0.5572,-0.7805,9.7893,0.0189,0.0142,0.0094
0.3,0.4448,-0.9078,9.7114,-0.0063,-0.0047,-0.0032
0.32,0.6995,-0.7349,9.8838,0.0203,0.0152,0.0102
0.34,0.399,-0.8377,9.6971,-0.0137,-0.0103,-0.0069
0.36,0.586,-0.6343,9.8678,0.0248,0.0186,0.0124
0.38,0.362,-0.9552,9.5284,-0.0287,-0.0216,-0.0144
0.4,0.5012,-0.7384,9.7911,0.0106,0.008,0.0053
0.42,0.4592,-0.7654,9.7953,-0.0064,-0.0048,-0.0032
0.44,0.469,-0.6647,9.7382,0.0023,0.0017,0.0011
0.46,0.2893,-0.8695,9.5507,-0.0376,-0.0282,-0.0188
0.48,0.5193,-0.8509,9.8389,0.0022,0.0016,0.0011
0.5,0.5994,-0.7979,9.8701,0.0198,0.0148,0.0099
0.52,0.66,-0.7553,9.7613,0.0168,0.0126,0.0084
0.54,0.5281,-0.8156,9.6046,-0.0068,-0.0051,-0.0034
0.56,0.4503,-0.8273,9.6025,-0.0135,-0.0101,-0.0068
0.58,0.5286,-0.7086,9.7894,0.0114,0.0085,0.0057
0.6,0.5133,-0.8421,9.6538,0.0008,0.0006,0.0004
0.62,0.5177,-0.6739,9.769,0.0016,0.0012,0.0008
0.64,0.4562,-0.8617,9.7055,-0.0036,-0.0027,-0.0018
0.66,0.567,-0.7897,9.8208,0.0153,0.0114,0.0076
0.68,0.5342,-0.8522,9.7627,0.0078,0.0059,0.0039
0.7,0.4258,-0.964,9.667,-0.0256,-0.0192,-0.0128
0.72,0.414,-0.7734,9.7668,0.0043,0.0032,0.0021
0.74,0.4764,-0.8463,9.6865,0.0013,0.0009,0.0006
0.76,0.5857,-0.8041,9.782,0.0091,0.0068,0.0046
0.78,0.4858,-0.7263,9.6287,-0.0066,-0.005,-0.0033
0.8,0.4593,-0.8582,9.7341,-0.0097,-0.0073,-0.0049
0.82,0.371,-0.8935,9.6427,-0.0187,-0.014,-0.0093
0.84,0.5063,-0.8004,9.7217,-0.0045,-0.0034,-0.0023
0.86,0.3981,-0.8105,9.7167,-0.0075,-0.0057,-0.0038
0.88,0.3341,-0.8857,9.4918,-0.0384,-0.0288,-0.0192
0.9,0.5194,-0.8169,9.7286,-0.0003,-0.0002,-0.0001
0.92,0.3659,-0.8623,9.4781,-0.0267,-0.02,-0.0133
0.94,0.5641,-0.8089,9.7294,0.0032,0.0024,0.0016
0.96,0.3522,-0.7907,9.6783,-0.0145,-0.0109,-0.0073
0.98,0.3437,-0.8358,9.6866,-0.0156,-0.0117,-0.0078
1.0,0.6189,-0.7476,10.0038,0.0258,0.0194,0.0129
1.02,0.5831,-0.8351,9.7591,-0.0017,-0.0013,-0.0009
1.04,0.4078,-0.9016,9.5497,-0.0288,-0.0216,-0.0144
1.06,0.5085,-0.693,9.7749,0.0029,0.0021,0.0014
1.08,0.5268,-0.8105,9.7256,-0.0039,-0.003,-0.002
1.1,0.6401,-0.6591,10.0022,0.0344,0.0258,0.0172
1.12,0.5387,-0.8193,9.7594,-0.0021,-0.0016,-0.001
1.14,0.5012,-0.7676,9.6378,-0.0102,-0.0082,-0.0054
1.16,0.5541,-0.7257,9.8909,0.0181,0.0135,0.0086
1.18,0.4642,-0.7668,9.8107,-0.0033,-0.0015,-0.0018
1.2,0.5497,-0.7809,9.8269,0.01,0.0073,0.0033
1.22,0.3695,-0.8892,9.5474,-0.0226,-0.0143,-0.0128
1.24,0.5979,-0.7972,9.9083,0.0215,0.0172,0.0071
1.26,0.6,-0.7527,9.7475,0.0105,0.0069,0.0023
1.28,0.4238,-0.9504,9.6127,-0.0105,-0.0095,-0.0084
1.3,0.5078,-0.8998,9.7732,0.0052,0.0035,0.0014
1.32,0.4848,-0.8857,9.8885,0.0152,0.0068,0.0019
1.34,0.491,-0.7342,9.8165,0.0063,0.0084,-0.0027
1.36,0.5619,-0.7324,9.6864,-0.0039,-0.0007,-0.0062
1.38,0.5196,-0.7228,9.8516,0.0091,0.0084,-0.0027
1.4,0.6578,-0.6351,9.8229,0.0086,0.0171,0.0031
1.42,0.3619,-0.8703,9.6632,-0.0117,-0.0046,-0.001
1.44,0.3804,-0.8718,9.715,-0.0121,-0.0065,0.0028
1.46,0.4567,-0.7845,9.7738,0.0053,0.0088,0.0035
1.48,0.7235,-0.7711,9.7853,0.0168,0.0097,0.0008
1.5,0.3067,-0.8288,9.6229,-0.0057,-0.0107,-0.0214
1.52,0.2817,-0.8905,9.6287,-0.0369,-0.017,-0.0052
1.54,0.5088,-0.9225,9.7182,-0.0085,-0.0032,-0.0078
1.56,0.4882,-0.8101,9.7078,-0.0047,0.0185,0.0001
1.58,0.5364,-0.6817,9.7481,0.0076,0.0076,0.0132
1.6,0.3695,-0.8675,9.8152,0.0024,0.0113,-0.0105
1.62,0.4414,-0.719,9.8708,0.024,0.0214,0.0083
1.64,0.5056,-0.7591,9.8425,0.0119,0.0174,-0.0062
1.66,0.5806,-0.8144,9.656,-0.0019,0.0055,-0.0144
1.68,0.6615,-0.5418,10.0473,0.0185,0.043,0.0169
1.7,0.6706,-0.7893,9.8133,0.0187,0.0117,-0.0224
1.72,0.5915,-0.8132,9.7945,0.0085,0.011,0.0243
1.74,0.5904,-0.7103,9.6952,-0.0005,0.0067,0.0133
1.76,0.7566,-0.8108,9.8832,0.0119,0.0175,0.0241
1.78,0.6929,-0.837,9.581,-0.0031,-0.011,-0.0182
1.8,0.5579,-0.8063,9.8995,0.018,0.0282,0.006
1.82,0.7238,-0.7249,9.9658,0.019,0.0265,-0.0057
1.84,0.776,-0.7593,9.9884,0.0191,0.0268,0.0201
1.86,0.3383,-0.9743,9.7551,-0.0113,-0.0024,0.0013
1.88,0.8228,-0.6552,9.9911,0.0149,0.0076,0.0364
1.9,0.4974,-0.7121,9.9468,0.013,-0.0087,0.0268
1.92,0.8171,-0.841,9.9446,0.0754,0.0059,0.0186
1.94,0.73,-0.9813,9.6003,0.0912,0.0227,0.0307
1.96,0.5927,-0.6747,9.531,0.1145,0.0518,0.013
1.98,0.6497,-0.8139,9.4709,0.0841,0.0786,-0.0435
2.0,0.3065,-1.1794,9.1129,-0.0141,-0.0318,-0.0748
2.02,0.6497,-0.9519,9.1382,-0.1761,-0.0982,-0.152
2.04,0.2142,-0.8079,9.0244,-0.3668,-0.1855,-0.1823
2.06,0.1549,-0.6896,9.3062,-0.5289,-0.1602,-0.2561
2.08,-0.3153,-0.5145,10.0207,-0.528,0.0026,-0.1819
2.1,-0.0818,-0.5149,11.7775,-0.3472,0.206,-0.1217
2.12,0.4696,-0.5595,12.5009,0.0352,0.3221,-0.0117
2.14,1.2293,-0.6816,11.3761,0.3445,0.1679,0.143
2.16,1.4138,-0.7928,9.8101,0.549,0.0388,0.2301
2.18,1.1153,-0.9653,9.0083,0.5585,-0.1782,0.2681
2.2,0.8034,-0.9234,8.9516,0.4228,-0.1981,0.1785
2.22,0.545,-0.9335,9.1633,0.2001,-0.0901,0.1842
2.24,0.4522,-0.8582,9.4865,0.0181,0.0553,0.0944
2.26,0.4489,-0.8471,9.6355,-0.1411,0.0813,0.0277
2.28,0.3902,-0.8862,9.5199,-0.1282,0.0869,-0.0288
2.3,0.3207,-1.0214,9.6097,-0.1005,0.019,-0.0042
2.32,0.5653,-0.7484,9.7758,-0.0506,-0.0237,-0.0296
2.34,0.5766,-1.0062,9.794,-0.0685,-0.0275,-0.0408
2.36,0.8138,-0.8063,10.0764,0.0704,0.0025,-0.0032
2.38,0.6052,-0.6676,9.9331,0.0034,0.0378,-0.0428
2.4,0.7011,-0.9047,9.6907,0.0719,0.0278,-0.014
2.42,0.8357,-0.7214,9.8682,0.0159,0.0305,0.0276
2.44,0.4648,-0.52,9.75,-0.0308,-0.0122,0.0334
2.46,0.4088,-0.7935,10.0559,-0.0022,0.0221,-0.0315
2.48,0.7255,-0.7313,10.0382,0.0406,-0.0138,-0.0117
2.5,0.7923,-0.9597,9.9071,0.0558,0.0146,0.0103
2.52,0.5952,-0.8952,9.6932,0.0944,-0.0016,-0.0872
2.54,0.58,-0.7181,9.4585,0.1017,0.0006,-0.0256
2.56,0.8524,-0.4353,9.3044,0.1398,0.0885,0.0129
2.58,0.6194,-0.6311,9.3053,0.1058,0.0917,0.0619
2.6,0.7161,-0.5763,9.2491,-0.0572,-0.0637,0.1436
2.62,0.2472,-0.7337,9.0803,-0.2833,-0.1717,0.2084
2.64,0.259,-0.6456,9.1418,-0.5156,-0.2379,0.2361
2.66,-0.1049,-0.9344,9.4848,-0.5995,-0.1009,0.256
2.68,-0.2887,-1.0601,10.5444,-0.5367,0.0902,0.2021
2.7,-0.1677,-1.3034,11.8547,-0.2439,0.2695,0.0566
2.72,1.104,-1.1896,12.0895,0.1624,0.3052,-0.0506
2.74,1.4796,-0.9102,10.8726,0.4672,0.114,-0.1886
2.76,1.4222,-0.9163,9.6106,0.6208,-0.0853,-0.2843
2.78,0.8093,-1.1645,8.7942,0.5309,-0.2534,-0.2783
2.8,0.7146,-0.8438,8.9068,0.3396,-0.2158,-0.2084
2.82,0.4886,-0.8709,9.1869,0.0767,-0.0544,-0.1486
2.84,0.5185,-0.4999,8.9814,-0.0793,0.0427,-0.0654
2.86,0.5553,-0.6748,9.3903,-0.1781,0.0765,0.0249
2.88,0.3797,-0.8553,9.6042,-0.1752,0.0381,0.0368
2.9,0.327,-0.6756,9.615,-0.0771,-0.0198,0.0184
2.92,0.3253,-0.7457,9.9473,-0.0491,-0.0152,0.0389
2.94,0.5604,-0.9489,10.0683,0.0202,0.0015,-0.0161
2.96,0.4046,-0.6455,9.9728,0.0143,0.0386,-0.0137
2.98,0.4426,-1.0349,9.8568,0.0051,0.0186,-0.0352
3.0,0.5664,-0.5881,9.9212,0.0183,0.0376,0.0486
3.02,0.3836,-0.9794,9.6211,-0.0154,0.0092,0.0213
3.04,0.3731,-0.8411,9.5403,-0.0329,0.0042,-0.0136
3.06,0.6488,-0.8834,9.8881,0.0271,0.0217,-0.0178
3.08,0.3528,-0.8482,9.6453,0.0308,-0.0093,0.028
3.1,0.5256,-1.0267,9.5281,0.0901,-0.025,0.0402
3.12,0.2064,-1.1448,9.1332,0.0863,0.0367,-0.02
3.14,0.9512,-0.7252,9.4788,0.1922,0.1123,0.0239
3.16,0.4818,-0.8294,9.2026,0.0566,0.0421,-0.0807
3.18,0.3705,-0.8619,9.1421,-0.1126,-0.0602,-0.1353
3.2,0.2802,-1.0309,9.0339,-0.3111,-0.1628,-0.2261
3.22,0.1213,-1.0859,8.7062,-0.554,-0.2409,-0.2598
3.24,-0.2073,-0.7623,9.2025,-0.6035,-0.1181,-0.2461
3.26,-0.4298,-0.605,10.2446,-0.4871,0.1359,-0.2057
3.28,0.3277,-0.5265,12.2037,-0.2184,0.3174,-0.0537
3.3,0.5732,-0.9471,11.748,0.1791,0.2869,0.0666
3.32,1.2534,-0.4908,10.8181,0.4944,0.1378,0.172
3.34,1.4765,-0.8724,9.1802,0.6294,-0.1254,0.2099
3.36,0.9109,-0.5824,9.056,0.5692,-0.2345,0.29
3.38,0.6775,-1.0066,8.6853,0.3075,-0.2017,0.2468
3.4,0.6576,-0.9912,9.1826,0.1067,-0.0469,0.1626
3.42,0.2214,-1.0905,8.9855,-0.1362,0.0258,0.0373
3.44,-0.0503,-1.2408,9.076,-0.2201,0.1012,-0.0056
3.46,0.5072,-0.7704,9.6475,-0.1256,0.0601,-0.0149
3.48,0.6204,-0.6864,9.8458,-0.0746,0.0141,0.0002
3.5,0.3226,-1.0605,9.7267,-0.0686,-0.0429,-0.0495
3.52,0.3794,-0.8991,9.9967,-0.0233,-0.0116,-0.0181
3.54,0.6072,-0.9274,9.7622,-0.0014,-0.0048,-0.0198
3.56,0.4522,-0.9773,9.8589,0.0095,0.0174,0.0405
3.58,0.6437,-0.7254,9.9213,0.0073,0.0193,-0.0089
3.6,0.55,-1.034,9.8872,0.0252,0.0153,-0.0216
3.62,0.5984,-0.8333,9.8861,0.1062,0.0388,-0.0126
3.64,0.701,-0.6313,9.8676,0.1534,0.0272,-0.0254
3.66,0.1458,-0.8073,9.4013,0.1316,0.0619,0.0008
3.68,0.3513,-0.7289,9.4586,0.1471,0.0747,-0.0061
3.7,0.5541,-0.4297,9.2345,0.0976,0.0757,0.0635
3.72,0.4813,-0.7944,8.8563,-0.1077,-0.1032,0.1339
3.74,0.2335,-1.1034,8.7102,-0.3513,-0.1865,0.2006
3.76,-0.0249,-1.0313,8.9836,-0.5757,-0.2038,0.2143
3.78,-0.3894,-1.0368,9.5617,-0.5759,-0.0522,0.2361
3.8,-0.2674,-0.9495,10.9477,-0.4206,0.1569,0.1524
3.82,0.4463,-1.2912,12.0613,-0.0993,0.2717,0.0568
3.84,0.7758,-1.2155,11.6515,0.2363,0.2617,-0.1121
3.86,1.4662,-0.8565,10.5816,0.514,0.0624,-0.1855
3.88,0.9957,-1.0015,9.2167,0.5736,-0.1446,-0.2423
3.9,0.5515,-0.9678,8.7346,0.4319,-0.2337,-0.2515
3.92,0.7951,-0.8213,9.0389,0.2025,-0.1588,-0.1645
3.94,0.7672,-0.7541,9.2171,0.0325,-0.0583,-0.0744
3.96,0.3756,-0.678,9.3275,-0.1043,0.0917,-0.0342
3.98,0.3096,-0.7596,9.4852,-0.152,0.1028,-0.0023
4.0,0.2038,-0.9825,9.6015,-0.1574,0.0497,0.0478
4.02,0.377,-0.7712,9.9459,-0.0789,-0.0034,0.0641
4.04,0.4355,-0.6435,9.9556,-0.0036,-0.0183,0.0191
4.06,0.6691,-0.5703,10.1029,-0.011,-0.0205,0.0192
4.08,0.5696,-0.7873,9.8415,-0.0222,-0.0367,-0.0038
4.1,0.3247,-0.5684,9.5936,-0.0092,0.0214,0.0181
4.12,0.5146,-0.658,9.9604,0.0153,-0.0156,-0.003
4.14,0.4985,-0.892,10.086,0.0062,-0.0177,0.0409
4.16,0.6993,-0.7672,10.0152,0.0883,0.0446,0.0442
4.18,0.7057,-0.9435,9.6169,0.0842,0.0052,0.0188
4.2,0.7384,-1.0117,9.4355,0.1578,0.0472,0.023
4.22,0.6277,-0.933,9.306,0.1812,0.1125,-0.0064
4.24,0.531,-0.968,9.3384,0.0728,0.0195,-0.0783
4.26,0.5357,-0.9222,9.0547,-0.0902,-0.0843,-0.1498
4.28,0.3885,-1.0131,9.1677,-0.2914,-0.1789,-0.2349
4.3,0.1441,-0.6567,8.9822,-0.5253,-0.2361,-0.2515
4.32,-0.2822,-0.5817,9.5312,-0.6074,-0.1138,-0.3042
4.34,-0.1987,-0.2988,10.9328,-0.5613,0.1442,-0.2056
4.36,0.1328,-0.3354,12.3239,-0.1633,0.3188,-0.0534
4.38,1.0223,-0.3094,12.2518,0.2058,0.2697,0.1258
4.4,1.1807,-0.6261,10.5702,0.4902,0.0531,0.1442
4.42,1.5779,-0.5848,9.3253,0.6488,-0.1145,0.2513
4.44,0.9965,-0.7919,8.8859,0.5374,-0.2626,0.2934
4.46,1.1276,-0.6015,9.3881,0.3478,-0.1728,0.2116
4.48,0.5649,-0.79,9.3042,0.0725,-0.0563,0.1139
4.5,0.2491,-0.9569,9.2314,-0.1523,0.0529,0.0184
4.52,0.2897,-0.9683,9.5148,-0.1737,0.0925,-0.0162
4.54,0.4575,-1.041,9.41,-0.1573,0.04,-0.055
4.56,0.3825,-0.6763,9.7354,-0.0413,0.0765,-0.0203
4.58,0.2718,-0.7932,9.8901,-0.0744,-0.0335,-0.0064
4.6,0.6392,-0.783,9.9913,0.0162,0.0093,-0.0261
4.62,0.6254,-0.7869,9.7263,-0.0016,0.0075,-0.0005
4.64,0.4893,-0.876,9.939,-0.0104,-0.0015,0.0134
4.66,0.7094,-0.7271,9.9187,-0.0055,0.0015,0.0179
4.68,0.73,-0.9413,9.6629,-0.0336,-0.0109,-0.0029
4.7,0.4953,-0.8962,9.7737,0.0089,0.0127,0.0053
4.72,0.6133,-0.8095,9.7348,0.0264,0.0244,0.0178
4.74,0.9368,-0.9258,9.8015,-0.0078,0.0039,0.0358
4.76,0.5573,-0.7699,10.0526,0.0132,-0.0223,0.0084
4.78,0.6809,-0.7492,10.0081,0.0468,-0.0253,-0.0392
4.8,0.8447,-0.8608,9.5864,0.1213,0.0061,-0.0186
4.82,0.4512,-0.8275,9.5451,0.1533,0.0758,-0.0408
4.84,0.4646,-0.7214,9.6059,0.1284,0.0867,-0.0062
4.86,0.5824,-1.034,9.2176,0.044,0.0176,0.0391
4.88,0.3192,-0.6118,9.2051,-0.0808,-0.0216,0.1138
4.9,0.5653,-0.5833,9.1649,-0.2947,-0.1465,0.2114
4.92,0.103,-0.8476,9.0917,-0.4595,-0.1681,0.2334
4.94,-0.2933,-1.086,9.5137,-0.551,-0.1078,0.2318
4.96,0.0131,-0.9473,10.6835,-0.3805,0.1098,0.1273
4.98,0.3615,-1.0085,12.0998,-0.0909,0.2639,0.0217
5.0,0.6801,-1.2941,11.2171,0.1999,0.2194,-0.0996
5.02,1.0507,-0.8165,10.5527,0.4916,0.0597,-0.1952
5.04,1.2875,-0.9363,9.2799,0.5474,-0.1101,-0.1988
5.06,0.6812,-0.8527,9.1603,0.459,-0.1999,-0.2183
5.08,0.468,-0.9715,9.0305,0.1992,-0.1637,-0.1908
5.1,0.3481,-0.7515,9.3345,0.0813,0.0105,-0.0702
5.12,0.366,-0.5838,9.4348,-0.064,0.0712,-0.0388
5.14,0.2307,-0.7449,9.3271,-0.1812,0.0912,-0.0062
5.16,0.5737,-1.1374,9.3628,-0.1167,0.0438,0.0012
5.18,0.4765,-0.8175,9.6883,-0.0906,0.0018,0.0469
5.2,0.4741,-0.7759,9.8139,-0.0413,-0.0128,-0.0074
5.22,0.5932,-0.6529,10.067,-0.0021,0.0198,0.0321
5.24,0.3319,-0.9573,9.6154,-0.0168,-0.0416,0.0024
5.26,0.4499,-1.0241,9.6396,-0.0001,0.0145,0.0154
5.28,0.632,-0.7485,9.5936,0.0382,-0.0218,0.004
5.3,0.5023,-0.9658,9.6105,0.0425,-0.0015,0.042
5.32,0.6587,-0.8945,9.5968,0.1248,0.0609,0.0267
5.34,0.5155,-1.1126,9.517,0.1993,0.068,0.0182
5.36,0.574,-0.7846,9.3923,0.1208,0.0685,-0.003
5.38,0.4937,-0.8962,9.1095,-0.0093,0.0037,-0.0875
5.4,0.511,-0.8333,8.9829,-0.2679,-0.1342,-0.1301
5.42,0.0767,-0.7939,8.989,-0.4391,-0.1937,-0.2509
5.44,-0.426,-0.8941,9.1042,-0.566,-0.14,-0.2592
5.46,-0.2649,-0.4349,10.1581,-0.5094,0.0206,-0.2013
5.48,-0.1661,-0.5778,11.3578,-0.2633,0.2186,-0.1257
5.5,0.5667,-0.5904,11.9361,0.0996,0.3143,0.0298
5.52,1.0848,-0.3552,11.386,0.3799,0.1888,0.1509
5.54,1.0294,-0.8496,9.5212,0.5593,-0.0587,0.2215
5.56,0.9781,-0.8413,8.9052,0.5784,-0.2364,0.2357
5.58,0.7677,-0.7345,8.9707,0.3979,-0.2123,0.2169
5.6,0.4789,-1.0685,9.1915,0.1525,-0.0892,0.1182
5.62,0.1737,-1.1132,9.0328,-0.0335,0.015,0.0472
5.64,0.1971,-1.2469,9.2197,-0.1291,0.0632,0.013
5.66,0.0781,-0.9543,9.6603,-0.1501,0.0732,-0.0426
5.68,0.1375,-0.9422,9.5028,-0.1141,0.0304,-0.0579
5.7,0.21,-0.768,9.8911,-0.0767,0.018,-0.0442
5.72,0.5948,-0.8653,10.1135,0.0005,0.0056,0.0049
5.74,0.7716,-0.85,9.7531,0.031,0.0184,-0.0063
5.76,0.0873,-1.0846,9.565,-0.0309,0.0273,-0.025
5.78,0.5359,-1.158,9.7086,0.0116,0.0281,0.0291
5.8,0.5467,-0.7767,9.9243,-0.02,-0.0055,-0.0033
5.82,0.5875,-0.7351,9.818,0.0516,-0.0043,-0.0055
5.84,0.5012,-0.8759,9.6238,0.0669,0.0191,-0.0694
5.86,0.6522,-0.7343,9.5053,0.1818,0.0494,-0.0457
5.88,0.4656,-0.9783,9.3503,0.1636,0.0928,-0.0396
5.9,0.1645,-0.8337,9.1442,0.146,0.0941,0.0253
5.92,0.4649,-0.9178,9.0516,0.05,-0.0264,0.099
5.94,0.3334,-0.5989,8.8539,-0.2,-0.1551,0.1984
5.96,-0.0477,-0.7422,8.6857,-0.5262,-0.2761,0.2672
5.98,-0.3485,-0.9174,9.0545,-0.7012,-0.2175,0.302
6.0,-0.7114,-0.874,9.7478,-0.6833,-0.0046,0.2766
6.02,-0.6477,-1.1556,11.6936,-0.4307,0.2568,0.1493
6.04,0.6831,-1.1337,12.9032,0.002,0.3548,-0.0027
6.06,1.1807,-1.1121,11.8409,0.3861,0.2162,-0.1791
6.08,1.6749,-0.9307,10.1458,0.7354,-0.0368,-0.2566
6.1,1.2101,-0.5821,9.0551,0.7122,-0.2153,-0.3295
6.12,0.8558,-0.9708,8.754,0.4842,-0.2576,-0.2897
6.14,0.3139,-0.8213,8.9601,0.2197,-0.1796,-0.1997
6.16,0.6387,-0.8037,8.7517,-0.0452,0.0136,-0.0897
6.18,0.4138,-0.5602,9.4229,-0.1548,0.1116,-0.0207
6.2,0.3294,-0.6582,9.3349,-0.188,0.0906,-0.0131
6.22,0.3627,-0.6917,9.5,-0.2018,0.0382,0.056
6.24,0.1816,-0.7184,9.8095,-0.0953,-0.0137,0.0297
6.26,0.498,-0.9355,9.835,-0.04,-0.0053,0.0028
6.28,0.6565,-0.8413,9.8761,0.0299,-0.0116,0.0054
6.3,0.4936,-0.9161,9.7501,0.0024,-0.0223,0.001
6.32,0.3871,-0.8953,9.9037,-0.0031,-0.0067,0.0094
6.34,0.2278,-0.9712,9.6292,-0.0186,-0.028,-0.0347
6.36,0.6052,-0.8783,9.7262,-0.0004,-0.0171,0.0166
6.38,0.6256,-0.745,10.0241,0.0237,0.0282,-0.0069
6.4,0.2853,-1.0291,9.9435,-0.0114,-0.0203,0.0079
6.42,0.4792,-0.8821,9.7325,0.0484,-0.0109,0.0047
6.44,1.081,-0.8558,9.7143,0.1431,0.0318,0.01
6.46,0.5832,-1.0362,9.3893,0.1411,0.0502,-0.0251
6.48,0.5821,-0.8808,9.3052,0.1318,0.087,-0.0295
6.5,0.5941,-0.9423,9.2367,0.034,0.0203,-0.0657
6.52,0.3022,-0.9439,9.3992,-0.1432,-0.1036,-0.1738
6.54,-0.0078,-1.0864,9.13,-0.4046,-0.2082,-0.235
6.56,-0.1445,-0.9323,9.0994,-0.5383,-0.2034,-0.2761
6.58,-0.2092,-0.769,9.8049,-0.5557,-0.0255,-0.2089
6.6,-0.3033,-0.3531,11.4899,-0.3464,0.2163,-0.1332
6.62,0.6484,-0.1342,12.478,0.007,0.3238,-0.0006
6.64,1.2031,-0.4675,11.8753,0.3098,0.2102,0.0573
6.66,1.4489,-0.4594,10.0138,0.5247,0.0021,0.1908
6.68,1.5384,-0.5988,9.4921,0.5889,-0.1633,0.2689
6.7,0.7764,-0.7491,9.0473,0.4064,-0.2275,0.1714
6.72,0.8557,-0.6801,9.3093,0.2548,-0.0983,0.188
6.74,0.4307,-0.9655,9.2664,-0.0232,-0.0301,0.0492
6.76,0.5817,-0.9078,9.46,-0.0999,0.0696,0.0487
6.78,0.3091,-0.9756,9.5407,-0.18,0.0624,-0.025
6.8,0.4206,-0.8577,9.5883,-0.0986,-0.0058,-0.0263
6.82,0.8185,-0.7878,9.9294,-0.0239,-0.0088,0.0111
6.84,0.5734,-0.7844,9.8308,0.0149,0.0068,-0.0162
6.86,0.6517,-0.8872,9.6943,-0.0236,-0.0239,-0.0062
6.88,0.7741,-0.6722,9.851,0.0587,0.011,-0.0004
6.9,0.6242,-0.8528,9.7177,-0.0298,0.0009,-0.023
6.92,0.527,-0.8745,9.6865,0.0073,0.0219,0.009
6.94,0.6833,-0.6603,9.9234,0.0482,0.0376,-0.0183
6.96,0.6281,-0.7066,9.8419,-0.0085,0.0208,-0.0692
6.98,0.636,-0.7156,9.7752,0.0469,-0.0045,-0.0089
7.0,0.3348,-0.8377,9.2847,0.0388,-0.07,-0.0446
7.02,0.5452,-0.7745,9.3906,0.172,0.054,-0.0412
7.04,0.5756,-0.6857,9.3775,0.2013,0.0951,-0.0569
7.06,1.182,-0.0922,10.1119,0.1928,0.1414,0.0143
7.08,0.6466,-0.4557,9.3742,-0.021,-0.028,0.1465
7.1,0.2077,-0.6005,8.9359,-0.2956,-0.2297,0.2232
7.12,-0.1384,-1.1553,8.5965,-0.5704,-0.2572,0.2815
7.14,-0.1443,-0.7235,9.3856,-0.6229,-0.1624,0.3186
7.16,-0.482,-1.1471,10.5901,-0.6457,0.0417,0.1617
7.18,0.1054,-1.1709,12.6835,-0.2375,0.3243,0.1052
7.2,0.5889,-1.2812,12.4832,0.1519,0.3327,-0.0771
7.22,1.7763,-0.8656,11.5158,0.5462,0.1646,-0.2138
7.24,1.3693,-1.0132,9.3389,0.6965,-0.1048,-0.2817
7.26,1.3199,-0.826,8.9551,0.6273,-0.2355,-0.3003
7.28,0.9184,-0.7498,8.8082,0.4083,-0.2025,-0.2473
7.3,0.6737,-0.6775,9.1596,0.1754,-0.0928,-0.149
7.32,0.6807,-0.649,9.4621,-0.0454,0.0925,-0.0466
7.34,0.5648,-0.8422,9.3987,-0.0973,0.1119,0.0144
7.36,0.1585,-0.6294,9.5887,-0.1116,0.0736,0.054
7.38,0.1728,-0.7411,9.5053,-0.1657,-0.0077,0.0383
7.4,0.1452,-0.8857,9.4731,-0.0539,-0.0404,0.036
7.42,0.2067,-0.7516,10.0597,-0.0435,-0.0106,0.0355
7.44,0.5487,-0.7745,9.7351,0.0221,-0.0421,0.0327
7.46,0.6077,-0.9458,9.9141,0.0299,-0.0305,0.0017
7.48,0.5654,-0.9642,9.7009,0.023,0.0028,0.0328
7.5,0.3676,-0.8371,9.724,0.0383,0.0231,-0.0162
7.52,0.7124,-0.7701,9.7033,0.0379,0.0624,0.001
7.54,0.4004,-0.9742,9.7116,-0.0148,-0.005,0.0034
7.56,0.3921,-1.1171,9.6419,0.0084,-0.0243,0.0031
7.58,0.1759,-0.9844,9.8701,-0.0007,0.0078,0.0211
7.6,0.5807,-0.8765,9.8254,0.0992,-0.0028,0.055
7.62,0.3989,-0.8988,9.3505,0.079,-0.024,0.0248
7.64,0.3174,-1.0836,9.3624,0.1339,0.0998,0.0406
7.66,0.4746,-0.9492,9.2157,0.141,0.0846,0.0174
7.68,0.2076,-1.1142,9.2622,0.013,0.0195,-0.0525
7.7,0.4602,-1.0311,8.8115,-0.1073,-0.1168,-0.1145
7.72,0.0503,-0.6856,9.0455,-0.3273,-0.2206,-0.2432
7.74,-0.0943,-0.8093,8.9613,-0.5733,-0.2234,-0.2323
7.76,-0.1971,-0.4709,9.7038,-0.5527,-0.0219,-0.2369
7.78,-0.9553,-0.888,10.8862,-0.4277,0.1376,-0.1796
7.8,0.3682,-0.3748,12.4865,-0.075,0.3108,-0.0654
7.82,0.8216,-0.7169,11.4988,0.289,0.2546,0.1227
7.84,1.3277,-0.5837,10.2857,0.5792,0.0619,0.2187
7.86,1.1419,-0.6464,8.8989,0.6039,-0.1612,0.2691
7.88,0.8577,-0.6886,8.9564,0.5121,-0.1764,0.2522
7.9,0.5207,-0.9646,8.912,0.291,-0.1164,0.19
7.92,0.4165,-1.0877,9.2079,0.0078,0.0055,0.0736
7.94,0.2217,-1.0986,8.9049,-0.1313,0.0363,-0.0136
7.96,0.0868,-0.9,9.2715,-0.1706,0.0706,-0.0196
7.98,0.0244,-0.973,9.6739,-0.1065,0.0111,-0.0286
8.0,0.3233,-0.9215,9.6711,-0.0833,-0.0037,-0.037
8.02,0.3589,-1.0113,9.7726,-0.0211,-0.0178,-0.0166
8.04,0.25,-0.9755,9.7488,0.0154,-0.029,-0.0276
8.06,0.4315,-0.9199,9.8567,0.008,0.0127,0.0113
8.08,-0.0005,-0.8624,9.5658,-0.0424,-0.0687,-0.0424
8.1,0.3538,-0.898,9.6442,0.0219,0.0116,-0.001
8.12,0.5759,-0.8881,9.794,0.0315,-0.0304,-0.0173
8.14,0.5031,-1.1893,9.8433,0.097,-0.0026,-0.0144
8.16,0.6551,-0.8422,9.5703,0.1321,0.0516,-0.0313
8.18,0.4978,-0.671,9.508,0.1973,0.0745,-0.0462
8.2,0.5678,-0.895,9.0711,0.1505,0.0638,0.0074
8.22,0.5947,-0.8432,9.1771,0.094,0.0385,0.035
8.24,0.2653,-0.8349,9.0446,-0.1469,-0.0894,0.1141
8.26,0.2832,-0.7109,8.9555,-0.3152,-0.2044,0.2358
8.28,-0.1925,-0.9096,8.8796,-0.4916,-0.2095,0.2659
8.3,-0.3917,-1.1055,9.494,-0.596,-0.0774,0.2589
8.32,-0.3994,-1.239,10.8071,-0.3918,0.1568,0.1679
8.34,-0.0223,-1.1642,12.4422,-0.1507,0.2662,0.0321
8.36,0.3641,-1.4144,11.6393,0.2407,0.2832,-0.0782
8.38,1.6459,-0.7432,10.6935,0.5283,0.0868,-0.1724
8.4,1.379,-0.882,8.9974,0.5815,-0.1632,-0.2627
8.42,0.8714,-0.8429,8.5761,0.4919,-0.2083,-0.2352
8.44,0.4525,-0.6669,8.848,0.26,-0.1589,-0.1805
8.46,0.4879,-0.6773,9.0644,0.0297,-0.0075,-0.0584
8.48,0.4008,-0.7679,9.1587,-0.0733,0.0755,-0.0272
8.5,0.0063,-0.7058,9.2779,-0.1918,0.1012,0.0043
8.52,0.1283,-0.5696,9.3999,-0.1327,0.0601,0.0516
8.54,0.1962,-0.674,9.8217,-0.0491,0.0014,0.06
8.56,0.3133,-0.801,9.9087,-0.0528,-0.0491,0.0253
8.58,0.3695,-0.7036,9.8788,0.0153,-0.0031,0.012
8.6,0.3729,-0.7714,9.7707,0.0087,-0.0115,0.0012
8.62,0.2811,-0.7763,9.6095,0.0017,0.0041,-0.0112
8.64,0.2486,-0.8815,9.6631,-0.0048,-0.0223,-0.0053
8.66,0.4339,-0.9189,9.8103,-0.0105,-0.0431,-0.0169
8.68,0.6237,-0.944,9.6761,0.0633,-0.017,0.0502
8.7,0.8822,-0.8743,9.7728,0.145,0.016,0.0509
8.72,0.5035,-0.939,9.7919,0.1887,0.0806,0.0151
8.74,0.5575,-1.124,9.4025,0.1706,0.1084,0.0111
8.76,0.5073,-1.083,9.1132,0.0148,0.0451,-0.0881
8.78,0.5195,-1.0345,8.9934,-0.1358,-0.0586,-0.1486
8.8,0.1921,-0.8658,8.9786,-0.3087,-0.1468,-0.2034
8.82,-0.2187,-0.9229,8.8339,-0.5536,-0.2066,-0.2348
8.84,-0.3562,-0.4069,9.8559,-0.5034,-0.0483,-0.1857
8.86,-0.1204,-0.3429,11.5713,-0.3392,0.1833,-0.1131
8.88,0.3342,-0.4047,12.3899,-0.0721,0.305,-0.0151
8.9,0.4839,-0.5321,11.4979,0.2465,0.1648,0.1189
8.92,1.3329,-0.3508,10.5912,0.4877,-0.0096,0.1989
8.94,1.4114,-0.6752,9.1079,0.5373,-0.1766,0.2117
8.96,0.73,-0.7007,9.2352,0.4231,-0.1715,0.2034
8.98,0.6138,-0.823,9.1371,0.2046,-0.1476,0.1565
9.0,0.6336,-0.7665,9.2155,0.0503,0.0047,0.0802
9.02,0.5528,-0.7472,9.6165,-0.0326,0.0806,0.0456
9.04,0.5059,-0.7701,9.74,-0.134,0.1011,-0.0068
9.06,0.3857,-1.0255,9.559,-0.1177,0.0541,-0.0311
9.08,0.155,-0.8169,9.4758,-0.1276,-0.0414,-0.028
9.1,0.3768,-1.0932,9.9444,-0.0049,0.0036,-0.018
9.12,0.2814,-0.9582,9.6994,0.0119,-0.0216,-0.0312
9.14,0.5408,-0.7883,10.1429,0.0363,0.0387,0.0328
9.16,0.566,-0.7504,9.8276,-0.0182,0.0045,-0.027
9.18,0.6966,-0.6406,10.094,0.0172,-0.0145,-0.0147
9.2,0.4251,-0.7833,9.9404,0.0006,-0.0356,-0.0299
9.22,0.6525,-0.9854,9.7347,0.0714,-0.0352,-0.0597
9.24,0.8025,-0.9981,9.6536,0.0973,0.0091,-0.03
9.26,0.4967,-0.7186,9.4385,0.1526,0.0287,-0.0204
9.28,0.614,-0.5887,9.5126,0.1538,0.0959,-0.0043
9.3,0.4666,-0.6855,9.4174,0.0721,0.0247,0.0678
9.32,0.8355,-0.5079,9.3202,-0.0648,-0.0107,0.1452
9.34,0.1636,-0.7597,8.8908,-0.3757,-0.2147,0.1895
9.36,0.0766,-0.7629,9.0774,-0.4914,-0.2048,0.2331
9.38,-0.3362,-1.0404,9.5469,-0.5656,-0.0877,0.2551
9.4,-0.4201,-1.1593,11.2379,-0.4337,0.097,0.1413
9.42,0.2927,-1.0733,12.2954,-0.1589,0.2516,0.0516
9.44,1.0952,-1.1297,12.0901,0.2568,0.2628,-0.1335
9.46,1.6912,-0.9875,10.8816,0.4822,0.0771,-0.2048
9.48,1.3421,-0.8216,9.4212,0.587,-0.1133,-0.2655
9.5,1.1432,-0.8816,9.02,0.4537,-0.226,-0.233
9.52,0.5513,-1.0383,8.9628,0.2689,-0.1585,-0.1656
9.54,0.3962,-0.7157,8.9374,0.0761,-0.0441,-0.1303
9.56,0.2645,-0.5628,9.1883,-0.1077,0.0389,-0.0299
9.58,0.4483,-0.8134,9.3156,-0.1364,0.0997,0.0144
9.6,0.2227,-0.5502,9.5781,-0.0988,0.0303,-0.0017
9.62,0.2869,-0.7637,9.5823,-0.0864,-0.0427,0.0184
9.64,0.359,-0.6601,10.026,-0.0817,0.0016,0.0326
9.66,0.3715,-0.824,9.844,0.0106,-0.0145,-0.0205
9.68,0.3249,-0.8887,9.8411,0.0042,-0.0045,0.0039
9.7,0.5759,-0.9197,9.8483,0.0136,0.0149,-0.0246
9.72,0.5346,-0.9618,9.8906,0.0562,-0.0289,0.0113
9.74,0.9148,-0.7233,10.0853,0.1217,0.0234,0.0592
9.76,0.8356,-1.0138,9.7669,0.1464,0.0664,0.0662
9.78,0.2109,-0.8623,9.2768,0.1788,0.104,0.0116
9.8,0.8643,-0.729,9.3569,0.144,0.0867,-0.0285
9.82,0.5532,-0.9065,8.8153,-0.0634,-0.0311,-0.1062
9.84,0.4348,-0.9614,8.9631,-0.2434,-0.1527,-0.1693
9.86,-0.1136,-0.7032,8.8032,-0.4488,-0.2406,-0.2574
9.88,-0.0117,-0.9635,9.2295,-0.5668,-0.1595,-0.2741
9.9,-0.0443,-0.2613,10.265,-0.536,0.0568,-0.2228
9.92,-0.4027,-0.6477,11.8194,-0.2559,0.2294,-0.0964
9.94,0.5038,-0.6161,12.734,0.0538,0.2521,0.0556
9.96,0.9632,-0.6888,11.036,0.4001,0.1422,0.1335
9.98,0.9901,-0.9553,9.5749,0.582,-0.1144,0.2217
10.0,0.9945,-1.0361,8.866,0.5884,-0.2028,0.249
10.02,0.694,-0.6545,8.7889,0.4056,-0.2045,0.2085
10.04,0.2724,-0.961,8.761,0.1204,-0.1067,0.147
10.06,0.2026,-1.0616,9.0155,-0.0773,0.0635,0.0831
10.08,0.3067,-0.8523,9.279,-0.1393,0.0658,-0.0006
10.1,0.3147,-0.9477,9.305,-0.1035,0.0973,-0.0634
10.12,0.1201,-1.0991,9.1849,-0.1463,-0.0076,-0.0702
10.14,0.4096,-1.0189,9.8766,-0.0067,-0.0106,-0.0176
10.16,0.1858,-0.988,9.638,-0.0394,-0.0292,-0.0431
10.18,0.0693,-1.0002,9.8327,0.053,0.0009,0.0181
10.2,0.7131,-0.7807,9.6665,0.0338,0.0033,0.0352
10.22,0.5132,-0.8181,9.807,-0.0118,0.0028,-0.0192
10.24,0.12,-1.0533,9.6002,-0.035,-0.0054,-0.0565
10.26,0.3716,-0.9567,9.7171,-0.0257,-0.0088,0.0043
10.28,0.5345,-0.9535,9.644,0.0175,-0.027,-0.0341
10.3,0.1955,-0.7734,9.4283,0.0595,-0.0309,-0.0274
10.32,0.4833,-0.8157,9.3283,0.1689,0.0564,-0.0144
10.34,0.5798,-1.0932,9.3518,0.1512,0.0771,-0.0382
10.36,0.4466,-0.6937,9.3043,0.1342,0.0372,0.0446
10.38,0.4638,-0.5318,9.0775,-0.0161,0.0091,0.0786
10.4,0.1604,-0.8092,8.7645,-0.1964,-0.1368,0.1594
10.42,-0.1538,-0.8141,8.6857,-0.4318,-0.218,0.2449
10.44,-0.3225,-0.8541,9.1239,-0.5579,-0.1412,0.2484
10.46,-1.0659,-1.3256,9.8735,-0.5366,-0.0074,0.181
10.48,-0.0268,-1.2337,12.1121,-0.2299,0.2033,0.0738
10.5,0.401,-1.6813,11.8553,0.0573,0.2448,-0.0063
10.52,1.0164,-1.1047,10.9415,0.3435,0.1224,-0.1873
10.54,1.1096,-0.9424,9.5409,0.5537,-0.0656,-0.2227
10.56,0.7362,-1.0261,8.6403,0.4658,-0.2281,-0.2514
10.58,0.4769,-0.6991,8.9125,0.3576,-0.1951,-0.2155
10.6,0.471,-0.6063,8.9664,0.1662,-0.0619,-0.127
10.62,0.5135,-0.6054,9.283,-0.0347,0.032,-0.0833
10.64,0.1517,-0.7597,9.1597,-0.1353,0.0584,0.0129
10.66,0.3839,-0.7181,9.5685,-0.1145,0.045,0.0093
10.68,0.182,-1.154,9.2754,-0.0769,0.0436,0.0362
10.7,0.3242,-1.1315,9.722,-0.0207,0.0147,0.0267
10.72,0.145,-1.1219,9.7486,-0.0496,-0.0439,0.005
10.74,0.5563,-0.7687,9.679,0.0383,0.0058,-0.0069
10.76,0.7344,-1.0845,9.6207,-0.0402,0.0252,-0.0234
10.78,0.5969,-0.5526,9.63,-0.0287,-0.017,0.0125
10.8,0.4469,-0.9454,9.6658,0.0038,0.0068,0.0081
10.82,0.1856,-0.7483,9.5165,-0.0246,-0.0209,0.0082
10.84,0.3539,-1.2688,9.7115,0.0081,-0.0653,-0.013
10.86,0.4794,-0.7354,9.8813,0.0264,-0.0316,0.013
10.88,0.3596,-0.8408,9.803,0.0551,-0.007,0.0436
10.9,0.3708,-1.1515,9.4206,0.1009,0.0189,-0.0076
10.92,0.417,-0.9272,9.4337,0.1449,0.0488,-0.0057
10.94,0.4452,-0.9993,9.3396,0.174,0.0862,-0.0198
10.96,0.5,-0.999,8.8363,0.0617,0.0097,-0.0661
10.98,0.3578,-0.951,8.9627,-0.1331,-0.073,-0.1083
11.0,0.0239,-0.6053,8.7989,-0.3864,-0.2518,-0.2397
11.02,-0.378,-0.8266,8.9207,-0.5553,-0.2244,-0.2793
11.04,-0.416,-0.7136,9.8953,-0.564,-0.0141,-0.2099
11.06,-0.0959,-0.2984,11.7425,-0.3834,0.1509,-0.1314
11.08,0.1359,-0.5473,12.4114,-0.056,0.2946,0.0123
11.1,0.8966,-0.1161,12.3555,0.3162,0.2682,0.1169
11.12,1.3098,-0.4942,10.18,0.5126,0.0021,0.2316
11.14,1.4857,-0.4808,9.1348,0.5966,-0.1573,0.2736
11.16,0.8636,-0.8999,8.8997,0.4787,-0.1991,0.2394
11.18,0.5216,-0.9522,9.0737,0.2662,-0.151,0.158
11.2,0.4666,-0.8594,9.2169,0.0422,0.0328,0.117
11.22,0.7032,-1.0618,9.1354,-0.1352,0.0314,0.0285
11.24,0.415,-1.1324,9.4175,-0.135,0.0919,0.0325
11.26,0.46,-0.8047,9.454,-0.1238,0.0349,-0.034
11.28,0.4197,-0.6979,9.8446,-0.0924,0.0053,-0.0355
11.3,0.3212,-0.8571,10.0938,0.0051,0.0031,-0.03
11.32,0.321,-0.7487,9.7252,-0.0063,-0.0138,-0.0102
11.34,0.4736,-0.819,9.6271,-0.0131,-0.0418,-0.0396
11.36,0.4777,-1.0923,9.9155,-0.0107,-0.0141,-0.002
11.38,0.5135,-0.8158,9.9154,0.047,-0.0299,0.0003
11.4,0.3445,-0.7261,9.7093,-0.0128,-0.0348,-0.0132
11.42,0.6028,-0.9927,10.007,0.0337,-0.014,-0.0241
11.44,0.6987,-0.7612,9.62,0.1078,0.011,0.0074
11.46,0.7672,-0.6659,9.4294,0.0962,0.0157,-0.0355
11.48,0.4833,-0.734,9.6064,0.1414,0.0582,0.0188
11.5,0.752,-0.6696,9.7102,0.1292,0.0458,0.0268
11.52,0.5366,-0.7235,9.0116,-0.0624,-0.0352,0.0926
11.54,0.2686,-0.6162,9.1454,-0.2525,-0.1664,0.1956
11.56,0.016,-0.7042,9.2551,-0.4487,-0.1826,0.2237
11.58,-0.4184,-0.9373,9.4992,-0.5411,-0.1199,0.2214
11.6,-0.3282,-0.72,10.615,-0.4288,0.081,0.1668
11.62,-0.2849,-1.3248,11.7697,-0.201,0.2079,0.0783
11.64,1.1401,-1.0531,12.5211,0.1086,0.2575,-0.06
11.66,1.204,-1.1863,10.9495,0.4076,0.1123,-0.1541
11.68,1.2116,-1.1166,9.804,0.5406,-0.0546,-0.2567
11.7,1.0644,-0.6815,8.9681,0.5151,-0.2018,-0.2343
11.72,0.9812,-0.6359,9.0778,0.3179,-0.1835,-0.2076
11.74,0.4907,-0.2873,9.472,0.1203,-0.0629,-0.1233
11.76,0.5961,-0.5712,9.6393,-0.0479,0.0211,-0.0511
11.78,0.4289,-0.7251,9.2519,-0.1565,0.07,-0.0034
11.8,0.2813,-0.67,9.714,-0.1273,0.0693,0.0398
11.82,0.5981,-0.5903,9.8683,-0.1123,0.0404,0.0467
11.84,0.2326,-0.8434,9.7958,-0.032,-0.0061,0.0062
11.86,0.5104,-0.7743,9.9593,-0.0089,-0.0365,0.0376
11.88,0.2647,-0.8077,9.7781,-0.0281,-0.0506,-0.0021
11.9,0.6342,-0.8246,9.95,0.0222,-0.0212,0.0217
11.92,0.8807,-0.6259,10.2991,0.027,0.0027,0.0298
11.94,0.8597,-0.2912,10.6497,0.0771,0.0408,0.025
11.96,0.2805,-1.2379,9.4922,0.0143,-0.0535,0.0302
11.98,0.5034,-0.8363,9.7644,0.1124,0.0206,0.0317
12.0,1.378,-0.1889,10.0982,0.2251,0.1139,0.0072
12.02,1.0337,-0.6659,10.0366,0.2337,0.1566,-0.0264
12.04,0.7727,-0.6919,9.652,0.1505,0.0606,-0.0313
12.06,1.3023,-0.6973,9.9054,0.0158,-0.002,-0.1181
12.08,-0.1321,-0.9093,8.5419,-0.3544,-0.201,-0.1532
12.1,-0.0167,-0.6046,9.1381,-0.4916,-0.2234,-0.256
12.12,-0.6511,-0.7707,9.3158,-0.563,-0.0662,-0.2278
12.14,-0.4611,-0.5488,10.5833,-0.4581,0.112,-0.1486
12.16,0.3302,-0.5583,12.6092,-0.1267,0.3061,-0.0443
12.18,1.1055,-0.3035,12.4826,0.1579,0.2644,0.0836
12.2,0.9797,-0.7249,10.1865,0.4351,0.0742,0.1782
12.22,0.7933,-0.7074,8.9132,0.5492,-0.1666,0.2551
12.24,0.5235,-0.9517,8.6343,0.4631,-0.2158,0.2216
12.26,0.287,-1.0877,8.5325,0.2245,-0.1856,0.1659
12.28,0.4036,-1.1786,8.863,0.0924,-0.0154,0.1142
12.3,0.8358,-0.6657,9.5453,-0.0234,0.0676,0.0186
12.32,0.7647,-0.7365,9.8513,-0.1235,0.0761,0.0065
12.34,0.6232,-0.8818,9.7643,-0.1144,0.087,-0.0046
12.36,-0.0051,-0.8857,9.1846,-0.1172,-0.0724,-0.0438
12.38,0.3644,-0.5854,9.8853,-0.032,-0.0179,-0.0578
12.4,0.2817,-0.8519,9.8496,-0.0228,-0.0282,-0.0512
12.42,-0.2672,-1.2683,9.3083,-0.0701,-0.0634,-0.0327
12.44,0.9726,-0.7046,10.056,0.0593,0.0275,0.0082
12.46,0.0715,-1.0774,9.544,0.0108,-0.0614,-0.03
12.48,0.0857,-0.9562,9.633,0.038,-0.0522,-0.0234
12.5,0.3864,-0.9651,9.271,0.0583,-0.0318,-0.0169
12.52,0.1572,-0.7909,9.0758,0.1192,0.0606,-0.0238
12.54,0.6315,-0.7706,9.1293,0.1575,0.1043,-0.0181
12.56,0.3962,-0.8339,9.0406,0.063,0.0418,0.0732
12.58,0.4417,-0.6018,8.993,-0.1662,-0.0847,0.1397
12.6,0.1,-0.824,9.0148,-0.3066,-0.1605,0.2408
12.62,-0.2137,-0.9637,8.6485,-0.562,-0.2525,0.2505
12.64,-0.6004,-0.9789,9.2338,-0.6198,-0.0922,0.2742
12.66,-0.8982,-1.1427,10.972,-0.5301,0.0718,0.1821
12.68,0.0216,-1.1226,12.6906,-0.1174,0.3115,0.1205
12.7,0.9354,-1.1634,12.5285,0.2486,0.287,-0.061
12.72,1.4943,-1.0208,10.8384,0.5154,0.0696,-0.214
12.74,1.249,-0.9739,9.1525,0.6493,-0.1277,-0.274
12.76,1.0482,-0.7703,8.7305,0.564,-0.2395,-0.2392
12.78,0.3624,-1.0441,8.8083,0.3395,-0.1687,-0.2162
12.8,0.3236,-0.8193,8.7461,0.062,-0.0255,-0.185
12.82,0.5074,-0.9961,9.0927,-0.0762,0.0366,-0.0421
12.84,0.39,-0.7294,9.2808,-0.2029,0.0978,0.0397
12.86,0.0099,-0.6257,9.3728,-0.1584,0.0319,0.0289
12.88,0.4921,-0.7549,9.6972,-0.0905,0.0336,0.0697
12.9,-0.0394,-1.0777,9.5155,-0.0508,-0.0381,0.0581
12.92,0.2507,-0.7982,9.8247,-0.0015,-0.0548,0.0181
12.94,0.5384,-0.8609,9.927,0.0299,0.0049,0.0212
12.96,0.3734,-0.4985,9.6978,0.0164,0.0133,0.0299
12.98,0.4195,-0.7599,9.647,-0.0324,-0.0112,0.0235
13.0,0.1877,-1.0426,9.8074,-0.0049,-0.0325,-0.0011
13.02,0.6534,-0.9277,9.7873,0.0394,0.0047,0.079
13.04,0.4782,-0.7946,9.5444,0.113,0.021,0.0698
13.06,0.6884,-0.8472,9.4059,0.1628,0.0237,0.0202
13.08,0.6831,-1.0082,9.1523,0.155,0.0858,-0.0285
13.1,0.5962,-1.1199,9.0286,0.0434,0.0195,-0.0365
13.12,0.3804,-0.725,8.9782,-0.1135,-0.099,-0.1283
13.14,0.0307,-0.973,8.6795,-0.3639,-0.2145,-0.2149
13.16,0.0044,-0.8088,8.8409,-0.544,-0.2488,-0.2753
13.18,-0.5324,-0.5895,9.5073,-0.5831,-0.0713,-0.2457
13.2,-0.3157,-0.3345,11.5003,-0.4196,0.1185,-0.1329
13.22,-0.0459,-0.6774,12.4409,-0.1161,0.2944,-0.0264
13.24,0.892,-0.516,12.1212,0.3049,0.2408,0.1201
13.26,1.5569,-0.4764,10.6955,0.5464,0.0802,0.2426
13.28,1.3804,-0.7243,9.0957,0.5971,-0.1681,0.272
13.3,1.0255,-0.6453,8.8656,0.4847,-0.2465,0.2301
13.32,0.3966,-0.853,8.7039,0.236,-0.1689,0.1561
13.34,0.5073,-0.8703,9.0266,0.0519,-0.0161,0.0781
13.36,0.4933,-0.929,9.4185,-0.1128,0.0793,0.0039
13.38,0.1653,-0.8716,9.262,-0.1553,0.0343,0.0194
13.4,0.0157,-0.8896,9.5332,-0.1515,0.0504,-0.0357
13.42,0.3197,-1.0,9.904,-0.0694,0.0342,-0.0321
13.44,0.5145,-0.9605,9.972,-0.062,-0.019,-0.013
13.46,0.3866,-0.6328,9.9959,-0.0062,-0.041,0.0058
13.48,0.5595,-0.5726,9.9853,0.0236,0.0061,-0.0256
13.5,0.6129,-0.6051,9.9091,-0.0054,-0.0195,-0.021
13.52,0.7313,-0.6576,9.8521,-0.0118,-0.0317,-0.0212
13.54,0.6886,-0.6419,10.1926,0.0207,-0.0249,-0.0242
13.56,0.4537,-0.4591,9.8703,0.0502,-0.0329,-0.0176
13.58,0.7887,-0.6516,9.74,0.0873,0.026,-0.0112
13.6,0.4822,-0.6788,9.3684,0.1332,0.0355,-0.0268
13.62,0.4451,-0.886,9.3599,0.1478,0.0856,-0.0277
13.64,0.4727,-0.7633,9.0856,0.0365,0.0078,0.0354
13.66,0.3674,-0.5584,9.0666,-0.1144,-0.0712,0.1259
13.68,0.2035,-0.5437,9.0647,-0.3266,-0.2231,0.1801
13.7,-0.0285,-0.7704,9.1389,-0.4894,-0.2501,0.2448
13.72,-0.1356,-0.6333,9.5528,-0.5506,-0.0754,0.2345
13.74,-0.0178,-1.105,11.0045,-0.5126,0.0631,0.1083
13.76,0.0124,-1.2697,12.2501,-0.1445,0.2742,0.0591
13.78,1.1459,-0.7123,12.4415,0.1934,0.2599,-0.0572
13.8,1.2518,-0.9325,10.6704,0.443,0.0767,-0.2187
13.82,1.5729,-0.9119,9.5306,0.5884,-0.1259,-0.2361
13.84,1.1161,-0.7203,9.0071,0.5371,-0.1939,-0.2611
13.86,0.8357,-0.6365,9.1074,0.2835,-0.1277,-0.1785
13.88,0.6934,-0.9309,9.2758,0.0748,-0.0429,-0.1056
13.9,0.4985,-0.5177,9.0837,-0.1018,0.0266,-0.036
13.92,0.3215,-0.5221,9.5746,-0.1345,0.0953,0.0317
13.94,0.4164,-0.4474,9.5416,-0.1326,0.0764,0.0619
13.96,0.5475,-0.6542,9.7522,-0.0926,-0.0003,0.0191
13.98,0.6398,-0.8415,10.0985,-0.0468,-0.0032,0.0085
14.0,0.3896,-0.8319,9.87,0.003,-0.0458,0.0059
14.02,0.5374,-0.9056,10.0605,-0.0459,0.0024,0.0223
14.04,0.5686,-0.7272,9.8587,-0.0262,-0.0536,-0.0016
14.06,0.7276,-0.8503,10.1107,0.0353,0.055,0.0059
14.08,0.3489,-0.4898,9.8624,0.0187,-0.0074,0.0058
14.1,0.7981,-0.6675,10.1678,0.0193,-0.0112,0.0481
14.12,0.4416,-0.7,9.844,0.0698,-0.0186,0.027
14.14,0.5256,-0.7705,9.7088,0.1128,0.0248,0.0421
14.16,0.583,-0.9292,9.4979,0.1201,0.0537,0.0228
14.18,0.6889,-0.9054,9.3752,0.0711,0.0319,-0.0001
14.2,0.376,-0.7122,9.4381,0.0216,0.0119,-0.0886
14.22,0.8465,-0.7289,9.4432,-0.1053,-0.0487,-0.1382
14.24,0.2149,-0.8292,8.9683,-0.3332,-0.218,-0.1931
14.26,0.2257,-0.4993,9.0967,-0.5224,-0.1734,-0.2405
14.28,-0.1773,-0.5349,9.9752,-0.5124,-0.0302,-0.203
14.3,-0.1403,-0.4451,11.2831,-0.3068,0.1562,-0.0957
14.32,0.7777,-0.2111,12.7265,-0.039,0.3033,-0.0101
14.34,1.017,-0.3233,11.6425,0.2868,0.2369,0.109
14.36,1.4262,-0.4698,10.1466,0.4342,0.0328,0.1767
14.38,1.0864,-0.8697,9.2795,0.5161,-0.1218,0.223
14.4,1.1721,-0.7774,9.2267,0.379,-0.201,0.2415
14.42,0.4946,-1.0278,9.1533,0.1869,-0.0802,0.1096
14.44,0.5777,-0.9428,9.0842,0.0128,0.0012,0.1035
14.46,0.4844,-1.0282,9.4398,-0.0568,0.0976,0.0553
14.48,0.4403,-0.9486,9.4372,-0.1153,0.0918,0.0041
14.5,0.4593,-1.039,9.9029,-0.0931,0.0604,-0.0214
14.52,0.3319,-1.2829,9.659,-0.1001,-0.029,-0.0473
14.54,0.3926,-0.5883,9.9163,-0.0086,-0.0013,-0.0347
14.56,0.3694,-0.7712,9.8276,-0.0216,0.0023,0.0415
14.58,0.5053,-0.7647,9.3665,-0.0282,-0.0608,0.0262
14.6,0.5678,-0.7708,9.8549,-0.016,0.0014,0.0196
14.62,0.5754,-0.9183,9.7309,-0.0233,0.001,-0.017
14.64,0.3209,-0.6063,9.8496,0.0089,-0.0158,0.0211
14.66,0.414,-0.7353,9.8906,0.0679,-0.0194,0.0191
14.68,0.3851,-0.6342,9.7735,0.0663,-0.0209,-0.0373
14.7,0.5055,-0.5258,9.6608,0.1353,0.0563,-0.04
14.72,0.7363,-0.6684,9.404,0.2111,0.0938,0.0082
14.74,0.6021,-1.0563,9.1403,0.1028,0.0813,0.0443
14.76,0.6351,-0.5971,9.0899,-0.0365,0.0065,0.1314
14.78,0.4227,-0.809,9.0398,-0.2371,-0.1683,0.1868
14.8,0.1999,-0.7006,8.8204,-0.5623,-0.2593,0.2677
14.82,-0.2017,-1.0285,9.4235,-0.6288,-0.1449,0.2907
14.84,-1.0329,-1.4399,10.2281,-0.5919,0.0036,0.273
14.86,0.05,-1.1224,12.5898,-0.2941,0.2984,0.1552
14.88,0.5434,-1.3379,12.9876,0.1154,0.3313,-0.0337
14.9,1.3028,-1.0793,11.4725,0.4438,0.1894,-0.19
14.92,1.2072,-1.0856,9.6793,0.6545,-0.0463,-0.2617
14.94,1.2702,-0.8717,9.2098,0.6813,-0.1894,-0.2937
14.96,0.5849,-0.8523,8.7564,0.4085,-0.2498,-0.2481
14.98,0.6534,-0.4606,8.9909,0.1784,-0.101,-0.1339
15.0,0.4257,-0.5678,9.0496,-0.0526,0.0278,-0.0466
15.02,0.1535,-0.7217,9.3168,-0.1712,0.1025,0.0397
15.04,0.1342,-1.0014,9.4465,-0.1256,0.0544,0.0265
15.06,-0.0619,-0.8285,9.3419,-0.1428,-0.017,0.0486
15.08,0.1895,-0.7863,9.7872,-0.0736,-0.0809,0.0569
15.1,0.3349,-0.7461,9.9049,-0.0148,0.007,0.0029
15.12,0.3002,-0.9028,9.5689,-0.0335,-0.0294,-0.0076
15.14,0.6794,-0.9898,9.8723,0.0458,0.008,0.032
15.16,0.3214,-0.5887,9.6797,0.0362,0.0237,0.0038
15.18,0.1955,-0.8685,9.7769,0.0045,-0.0113,0.0333
15.2,0.6193,-0.8379,9.6942,0.016,-0.0587,0.0018
15.22,0.2294,-0.9786,9.7334,0.0326,-0.0076,0.0211
15.24,0.4411,-0.7765,9.5316,0.0903,0.0078,0.0277
15.26,0.4659,-1.0321,9.3601,0.1413,0.0673,0.0322
15.28,0.7696,-0.6514,9.3359,0.2012,0.0751,-0.0185
15.3,0.738,-0.7766,9.1082,0.0706,0.0599,-0.0426
15.32,0.4706,-0.8352,9.0672,-0.1325,-0.0453,-0.1548
15.34,0.0864,-0.9083,8.6903,-0.3829,-0.2112,-0.2321
15.36,-0.2808,-0.6919,8.9405,-0.5477,-0.2587,-0.2622
15.38,-0.6108,-0.5234,9.514,-0.6381,-0.0435,-0.2913
15.4,-0.1112,-0.1764,11.599,-0.4174,0.1784,-0.1569
15.42,0.0465,-0.4716,12.1645,-0.1081,0.3449,-0.03
15.44,0.8977,-0.5986,12.2818,0.2376,0.2249,0.0639
15.46,1.3456,-0.8952,10.0206,0.5657,0.0039,0.1968
15.48,1.5223,-0.5145,9.1623,0.6268,-0.1747,0.2752
15.5,0.62,-0.7275,8.6043,0.48,-0.2569,0.2312
15.52,0.8051,-0.9852,9.1697,0.3031,-0.1383,0.2219
15.54,0.7165,-1.0544,9.1327,0.0516,-0.0062,0.1728
15.56,0.2357,-0.9386,9.2021,-0.1294,0.0963,0.0427
15.58,0.4375,-0.9261,9.4189,-0.1348,0.0644,0.0227
15.6,-0.0149,-0.8007,9.5113,-0.1772,0.0277,-0.0374
15.62,0.3161,-0.6918,9.7305,-0.0834,0.0032,-0.0388
15.64,0.274,-0.8048,9.9524,-0.0566,-0.0518,-0.0065
15.66,0.5838,-0.8995,9.8817,-0.0277,0.0067,-0.0015
15.68,0.3494,-1.0717,9.4306,-0.0378,-0.0617,-0.0354
15.7,0.6631,-0.5253,9.9708,0.0092,-0.0172,-0.0159
15.72,0.4697,-1.0373,9.4419,-0.0266,-0.0342,-0.0266
15.74,0.6493,-0.7756,9.7549,0.0331,-0.0125,0.0197
15.76,0.5285,-0.7443,9.7661,-0.0296,-0.0083,0.0153
15.78,0.8938,-0.6853,10.1623,0.0443,0.0084,0.0202
15.8,0.6543,-0.8385,10.0191,0.0513,-0.005,-0.0151
15.82,0.7645,-0.9136,9.8512,0.0619,0.0169,-0.0267
15.84,0.6423,-0.3587,9.7462,0.1449,0.0418,-0.0448
15.86,0.4526,-0.7788,9.2466,0.1186,0.0439,-0.0405
15.88,0.9197,-0.1493,9.5697,0.0967,0.0729,-0.0058
15.9,0.649,-0.3743,9.4187,-0.0131,0.0039,0.1252
15.92,0.5119,-0.5835,9.3174,-0.2216,-0.1592,0.1534
15.94,0.4641,-0.4381,9.2214,-0.4141,-0.2067,0.2611
15.96,-0.1045,-0.7229,9.7672,-0.5307,-0.1108,0.251
15.98,-0.3231,-1.0203,10.1829,-0.55,0.007,0.2115
16.0,0.017,-1.3325,11.6652,-0.2765,0.2229,0.1566
16.02,0.682,-0.7739,12.6146,0.0372,0.3262,-0.0223
16.04,1.299,-0.8325,11.7853,0.4038,0.1948,-0.1286
16.06,1.2791,-1.0216,9.7602,0.5055,-0.0362,-0.2086
16.08,1.2737,-0.6816,9.271,0.5665,-0.2003,-0.2593
16.1,0.8634,-0.691,9.3627,0.4092,-0.2077,-0.205
16.12,0.7457,-0.6645,9.2582,0.1833,-0.1019,-0.1557
16.14,0.2636,-0.7066,9.1687,-0.0125,-0.0078,-0.0757
16.16,0.7186,-0.4162,9.6127,-0.1081,0.0943,0.0234
16.18,0.3957,-0.7968,9.3669,-0.1594,0.0457,0.0346
16.2,0.7508,-0.54,10.0314,-0.0885,0.0175,0.0532
16.22,0.7432,-0.6846,9.9037,-0.0553,-0.0167,0.049
16.24,0.5555,-0.7535,10.1693,-0.0396,0.0272,0.0413
16.26,0.7118,-0.4162,10.2869,-0.0231,0.0005,0.0237
16.28,0.6873,-0.4425,10.158,0.0401,0.0184,0.035
16.3,0.7214,-0.9349,10.1098,0.0727,-0.0099,0.0353
16.32,0.6467,-0.5241,9.6412,0.0731,0.0011,0.0743
16.34,0.8027,-0.8274,9.4847,0.1453,0.0539,0.009
16.36,0.6453,-0.9292,9.3051,0.1685,0.0867,0.0107
16.38,0.498,-0.9246,9.1744,0.1087,0.0928,-0.0428
16.4,0.6304,-0.5305,9.3469,-0.0377,-0.0166,-0.09
16.42,0.3312,-0.7275,8.9771,-0.3293,-0.1764,-0.217
16.44,0.015,-0.6319,9.0765,-0.5568,-0.2525,-0.2528
16.46,-0.5531,-0.5971,9.2977,-0.687,-0.1783,-0.3055
16.48,-0.2777,-0.4457,10.7639,-0.5017,0.0875,-0.1838
16.5,-0.1977,-0.3837,12.2155,-0.2135,0.2583,-0.0994
16.52,1.1067,0.0233,12.8262,0.1956,0.3456,0.012
16.54,1.2771,-0.4717,10.8178,0.4855,0.1173,0.1769
16.56,1.4053,-0.6503,9.3936,0.6204,-0.0813,0.25
16.58,1.1518,-0.7613,9.027,0.5716,-0.2476,0.2863
16.6,1.0681,-0.8647,9.1708,0.3395,-0.225,0.2163
16.62,0.6699,-0.7639,9.2709,0.1176,-0.0616,0.153
16.64,0.5977,-1.0773,9.2154,-0.0944,0.0907,0.0466
16.66,0.5173,-0.9631,9.498,-0.1784,0.0935,-0.0301
16.68,0.2418,-0.7185,9.5825,-0.1861,0.0661,-0.061
16.7,0.5361,-0.5664,9.669,-0.127,0.0702,-0.0629
16.72,0.474,-0.9235,9.887,-0.0372,0.0187,-0.0387
16.74,0.4687,-0.8071,10.019,-0.0295,-0.0328,-0.0136
16.76,0.7962,-0.6928,10.1559,0.0285,0.0146,-0.001
16.78,0.4653,-0.8428,9.7807,-0.0014,-0.0156,0.0107
16.8,0.1385,-0.8526,9.747,-0.0428,-0.0267,-0.0151
16.82,0.8121,-0.7501,9.8607,-0.043,-0.0201,0.0198
16.84,0.5201,-0.7985,9.9934,0.0317,0.0035,0.0208
16.86,0.8403,-0.8656,10.2087,0.0587,0.0089,-0.0175
16.88,0.8018,-0.6052,9.97,0.1037,-0.0293,-0.0513
16.9,0.7896,-0.744,9.8216,0.0989,0.0513,-0.0362
16.92,0.6553,-0.5682,9.3555,0.2137,0.0494,0.0141
16.94,0.5102,-0.6661,9.0316,0.1554,0.0448,-0.0237
16.96,0.5806,-0.3724,9.0921,0.0805,0.0373,0.0741
16.98,0.4823,-0.7062,9.0749,-0.1785,-0.1404,0.182
17.0,0.0026,-0.8099,8.8148,-0.5001,-0.264,0.2443
17.02,-0.299,-0.8288,8.9827,-0.6906,-0.2615,0.2884
17.04,-0.5526,-1.1844,9.85,-0.6574,-0.0438,0.2754
17.06,-0.391,-1.0075,11.7317,-0.4638,0.1882,0.1741
17.08,0.0971,-1.51,12.6605,-0.0419,0.3511,-0.0466
17.1,1.4797,-0.9455,12.0677,0.3022,0.2479,-0.1207
17.12,1.1766,-1.2894,10.0224,0.637,0.0159,-0.2659
17.14,1.6728,-0.791,9.2945,0.6914,-0.1714,-0.2778
17.16,0.8626,-0.7456,8.9278,0.5264,-0.2462,-0.2522
17.18,0.7498,-0.9524,8.9815,0.2391,-0.1178,-0.1998
17.2,0.1196,-0.6988,8.9723,-0.0024,-0.014,-0.0991
17.22,0.6455,-0.6009,9.3997,-0.1052,0.1303,-0.0412
17.24,0.4981,-0.5136,9.2359,-0.1918,0.076,0.0189
17.26,0.6422,-0.7188,9.7367,-0.1228,0.0329,0.0623
17.28,0.4031,-0.7213,10.1363,-0.0611,0.0282,0.0385
17.3,0.3167,-0.7333,9.9029,-0.0191,0.0116,0.0176
17.32,0.1291,-0.6245,9.8494,0.0086,-0.0354,0.0063
17.34,0.2082,-0.7727,9.8168,-0.0045,-0.0254,-0.0117
17.36,0.4551,-0.821,9.656,-0.0472,-0.0087,-0.0128
17.38,0.4145,-0.7217,9.6545,-0.0018,-0.0246,-0.026
17.4,0.412,-0.8995,9.6659,-0.0054,-0.0461,0.0281
17.42,0.5856,-0.7379,9.8521,0.0587,-0.0211,0.0149
17.44,0.6827,-0.9278,9.7245,0.1112,0.0176,0.0391
17.46,0.5915,-1.1381,9.5453,0.102,0.0363,-0.0082
17.48,0.7084,-0.9749,9.2881,0.1895,0.0953,0.015
17.5,0.3808,-0.9067,9.1725,0.0753,0.0851,-0.0081
17.52,0.2919,-1.2255,8.8272,-0.0545,-0.0556,-0.1148
17.54,0.2158,-1.0461,8.9442,-0.2865,-0.1835,-0.2046
17.56,0.0295,-0.9709,8.9307,-0.5157,-0.2137,-0.2532
17.58,-0.42,-0.7371,9.2461,-0.6107,-0.1434,-0.2801
17.6,-0.4551,-0.7094,10.3439,-0.5408,0.1048,-0.1827
17.62,-0.0963,-0.3817,11.9667,-0.2311,0.262,-0.0659
17.64,0.6659,-0.2307,12.4238,0.1759,0.2832,0.0754
17.66,1.049,-0.7347,10.5448,0.4662,0.1439,0.1892
17.68,1.4378,-0.5949,9.6545,0.634,-0.0927,0.2573
17.7,1.1103,-0.5114,9.1057,0.5666,-0.2297,0.2627
17.72,0.508,-1.1354,8.7911,0.3443,-0.2435,0.221
17.74,0.3733,-0.9108,9.1056,0.1087,-0.066,0.133
17.76,0.5247,-0.7118,9.1065,-0.0548,0.0446,0.0816
17.78,0.6063,-0.6764,9.6933,-0.0964,0.1602,0.0036
17.8,0.4259,-0.6395,9.8936,-0.1434,0.0857,-0.054
17.82,0.3314,-0.6837,9.8944,-0.0897,0.0141,-0.0412
17.84,0.2165,-0.6119,9.6842,-0.0849,0.0126,-0.0607
17.86,0.3295,-1.2387,9.6791,-0.0458,-0.0571,-0.024
17.88,0.7679,-0.9668,10.1646,0.0257,0.0395,-0.0017
17.9,0.2723,-0.9369,9.5386,-0.0358,-0.0295,-0.0274
17.92,0.2658,-0.8994,9.5553,-0.0534,-0.042,-0.0301
17.94,0.4616,-0.6714,9.7675,-0.0237,-0.0343,-0.0124
17.96,0.3463,-0.7714,9.8986,-0.0305,-0.0119,-0.0247
17.98,0.2526,-0.9006,9.6901,-0.0456,-0.0449,-0.0523
18.0,0.6483,-0.9284,9.738,0.0604,0.0077,-0.0512
18.02,0.561,-0.6623,9.6717,0.1553,0.0254,-0.0383
18.04,0.4107,-0.6641,9.3832,0.1319,0.082,-0.0159
18.06,0.5678,-0.7904,9.3715,0.1097,0.0807,0.0788
18.08,0.3238,-0.9897,9.1129,-0.0357,-0.0687,0.0927
18.1,0.4247,-0.7235,9.1748,-0.2531,-0.1468,0.1407
18.12,-0.0392,-0.7266,9.0366,-0.4928,-0.2357,0.2351
18.14,-0.0245,-0.8812,9.4094,-0.54,-0.1423,0.2375
18.16,-0.1961,-1.0761,10.5022,-0.518,0.0633,0.2063
18.18,-0.0154,-0.9792,11.9881,-0.2758,0.2324,0.112
18.2,0.4941,-1.2844,12.0717,0.0532,0.3006,-0.0167
18.22,1.47,-1.0702,11.4878,0.4002,0.1721,-0.1823
18.24,1.2885,-1.1961,9.6312,0.5887,-0.0793,-0.239
18.26,1.1531,-0.8469,9.0505,0.5914,-0.2026,-0.2487
18.28,0.5761,-0.8065,9.071,0.327,-0.2214,-0.2289
18.3,0.9206,-0.6449,9.5045,0.1692,-0.0673,-0.1446
18.32,0.4262,-0.5267,9.2013,-0.0852,0.0245,-0.0672
18.34,0.412,-0.3287,9.5983,-0.1243,0.0905,-0.0475
18.36,0.4026,-0.6336,9.6249,-0.1612,0.0392,-0.0231
18.38,0.601,-0.5276,10.1341,-0.0887,0.0394,0.0532
18.4,0.3463,-0.7449,9.9007,-0.0504,0.0007,0.0198
18.42,0.5459,-0.7016,10.0829,-0.0226,-0.0143,-0.0276
18.44,0.3676,-0.6802,9.8887,0.001,0.0089,-0.0048
18.46,0.3709,-0.849,9.7691,-0.0361,-0.0018,-0.0391
18.48,0.5929,-0.7109,9.7965,-0.0012,0.0173,0.0478
18.5,0.4104,-0.9686,9.8676,-0.0439,-0.0289,-0.0159
18.52,0.921,-0.635,10.2641,0.0131,-0.0266,0.024
18.54,0.5947,-0.6467,10.1348,0.082,0.0163,0.0484
18.56,0.8344,-0.8747,9.6901,0.128,0.0457,0.0274
18.58,0.623,-0.7969,9.5142,0.1508,0.0959,0.0037
18.6,0.6996,-0.6599,9.6653,0.1491,0.0995,0.0098
18.62,0.6739,-0.684,9.3192,0.0539,0.0351,-0.0686
18.64,0.5997,-0.6499,9.3917,-0.1726,-0.1199,-0.1696
18.66,0.4496,-0.6355,8.9379,-0.3996,-0.1895,-0.2267
18.68,0.0357,-0.6866,9.2816,-0.5265,-0.1777,-0.2259
18.7,-0.3187,-0.5144,9.918,-0.567,-0.0415,-0.2271
18.72,-0.1689,-0.6975,11.3944,-0.3778,0.1952,-0.1124
18.74,0.6613,-0.2643,12.2932,-0.028,0.2983,-0.0276
18.76,1.6659,0.0497,11.9853,0.348,0.2138,0.1199
18.78,1.3132,-0.4859,10.0216,0.5156,0.0177,0.2106
18.8,1.3228,-0.5843,9.3779,0.5645,-0.1641,0.2351
18.82,0.7694,-0.7683,9.1198,0.3812,-0.2392,0.2127
18.84,0.7762,-0.9005,9.2195,0.1995,-0.106,0.1567
18.86,0.5226,-0.9286,9.4041,-0.0249,-0.016,0.1302
18.88,0.5199,-1.046,9.4681,-0.152,0.0929,0.0205
18.9,0.5947,-0.7389,9.8456,-0.1023,0.1143,-0.0045
18.92,0.465,-0.7754,9.6441,-0.1634,0.002,-0.0525
18.94,0.488,-0.9748,9.9481,-0.1017,0.0044,-0.056
18.96,0.3523,-0.8886,9.7484,-0.0816,-0.0171,-0.0523
18.98,0.6234,-0.6893,10.0876,0.0502,0.0265,0.0115
19.0,0.5784,-0.8147,10.0081,-0.0193,-0.0379,-0.0542
19.02,0.7133,-0.7888,9.9213,0.0193,0.0147,0.0155
19.04,0.3987,-0.7942,9.9326,-0.0121,-0.0667,-0.0354
19.06,0.6995,-0.4663,9.9263,0.0629,-0.0228,-0.0515
19.08,0.6264,-0.7649,9.5301,0.1163,0.0405,-0.0244
19.1,0.6109,-0.7214,9.3986,0.1542,0.0716,-0.0258
19.12,0.7711,-0.3807,9.3061,0.155,0.0735,0.035
19.14,0.6359,-0.6368,9.3031,0.0491,0.0203,0.1368
19.16,0.7035,-0.6912,9.2738,-0.2029,-0.1135,0.1892
19.18,0.3749,-0.6114,8.931,-0.5071,-0.2514,0.2083
19.2,-0.3201,-0.824,9.0812,-0.6816,-0.2204,0.2768
19.22,-0.3705,-1.2229,9.9858,-0.6588,-0.0084,0.2639
19.24,0.3234,-0.8864,12.3027,-0.3758,0.2545,0.183
19.26,0.4706,-1.2924,12.7085,0.0162,0.3907,0.0262
19.28,1.3876,-1.2257,11.8501,0.4163,0.2407,-0.1706
19.3,1.3783,-0.9592,10.0292,0.6774,-0.0466,-0.2357
19.32,1.4282,-0.7103,9.1803,0.7006,-0.1845,-0.2727
19.34,0.9265,-0.5327,8.9951,0.5029,-0.2448,-0.2469
19.36,0.6756,-0.7127,9.101,0.2162,-0.1069,-0.1685
19.38,0.5265,-0.6483,9.1393,-0.0645,0.0046,-0.0811
19.4,0.5006,-0.6625,9.5069,-0.1267,0.1208,0.0272
19.42,0.5045,-0.6801,9.4547,-0.2113,0.0887,0.0621
19.44,0.3544,-0.5077,9.7603,-0.1412,0.0168,0.0774
19.46,0.4502,-0.963,9.8288,-0.0587,-0.0202,0.0581
19.48,0.4702,-0.7309,9.7578,-0.0518,-0.0375,-0.0063
19.5,0.543,-0.872,9.6101,-0.0325,-0.031,0.0294
19.52,0.4378,-0.8629,9.7998,0.0007,-0.0358,-0.0127
19.54,0.6149,-0.6134,9.8909,-0.018,-0.0239,0.0189
19.56,0.334,-0.9226,9.6269,-0.0427,-0.0466,0.0118
19.58,0.7591,-0.6997,9.8854,-0.0048,0.0199,0.0081
19.6,0.5992,-0.9694,9.7963,0.0073,0.0048,0.0371
19.62,0.4447,-0.5894,9.8478,0.0831,0.0103,0.0234
19.64,0.5471,-0.8207,9.6539,0.1464,0.0799,0.082
19.66,0.6682,-0.7848,9.4319,0.1574,0.0896,0.0245
19.68,0.5427,-0.927,9.3666,0.1898,0.0858,-0.0021
19.7,0.6363,-0.7089,9.2354,0.0229,0.004,-0.1053
19.72,0.4603,-0.8115,9.1086,-0.1618,-0.0906,-0.1236
19.74,0.2104,-0.7852,8.662,-0.486,-0.2358,-0.2634
19.76,0.0704,-0.5904,8.9574,-0.6177,-0.2037,-0.277
19.78,-0.2964,-0.4508,9.8691,-0.5848,-0.011,-0.2047
19.8,-0.533,-0.7618,11.2038,-0.403,0.2037,-0.176
19.82,0.5264,-0.2581,12.5278,-0.0185,0.3137,0.0268
19.84,0.8904,-0.6091,11.6422,0.3393,0.224,0.1194
19.86,1.3079,-0.475,10.0913,0.605,0.0206,0.2519
19.88,0.9976,-0.7821,9.0762,0.5965,-0.2039,0.2683
19.9,0.8826,-0.813,8.8322,0.4827,-0.2528,0.248
19.92,0.7956,-0.8526,8.9804,0.1714,-0.0805,0.2031
19.94,0.3831,-1.1242,9.12,-0.0021,0.0189,0.0564
19.96,0.2513,-0.9834,9.2458,-0.1345,0.0816,0.0268
19.98,0.0858,-1.2266,9.2769,-0.2006,0.0898,-0.0304
20.0,0.2101,-0.9244,9.2704,-0.1676,0.045,-0.0602
20.02,0.426,-1.1112,9.553,-0.0855,-0.0195,-0.0428
20.04,0.5229,-0.9365,10.0366,-0.0362,0.0443,0.0002
20.06,0.6261,-0.7799,9.877,0.0023,-0.0183,-0.0115
20.08,0.2722,-1.0972,9.8568,-0.0131,-0.0286,-0.0262
20.1,0.4256,-0.7813,9.5513,0.0005,-0.0336,-0.0131
20.12,0.4753,-0.812,9.7707,0.0419,-0.0036,-0.0312
20.14,0.5166,-0.5925,9.4724,0.0836,0.0331,0.0118
20.16,0.4093,-1.0886,9.2522,0.1053,0.064,-0.0296
20.18,0.7185,-0.6925,9.3707,0.1961,0.1244,0.0242
20.2,0.8356,-0.5306,9.2433,0.0966,0.0582,0.0682
20.22,0.5467,-0.5033,9.169,-0.061,-0.02,0.1178
20.24,0.2022,-0.8901,8.9099,-0.2836,-0.1708,0.1721
20.26,0.0267,-0.8299,9.1065,-0.4835,-0.2265,0.213
20.28,-0.4061,-0.9975,9.3125,-0.5534,-0.1142,0.2794
20.3,-0.2786,-1.1643,10.4284,-0.4888,0.0914,0.1917
20.32,0.2104,-1.1537,12.0725,-0.2481,0.2658,0.0819
20.34,0.7013,-1.2006,12.0072,0.1759,0.2731,-0.1071
20.36,1.4635,-0.7663,10.7268,0.4703,0.0818,-0.1867
20.38,1.3416,-1.2436,9.3566,0.5572,-0.1006,-0.2607
20.4,0.8823,-0.667,9.2359,0.5155,-0.1723,-0.2486
20.42,0.792,-0.6968,9.2214,0.3247,-0.1622,-0.2183
20.44,0.4392,-0.8326,9.033,0.0991,-0.0549,-0.1307
20.46,0.5074,-0.4683,9.2745,-0.1145,0.0148,-0.0335
20.48,0.322,-0.5994,9.5284,-0.1699,0.0543,0.0071
20.5,0.5355,-0.8216,9.4764,-0.1486,0.0622,0.0207
20.52,0.4396,-0.576,9.7219,-0.1012,0.005,0.0379
20.54,0.6037,-0.7779,9.921,-0.0446,0.0188,-0.0006
20.56,0.9395,-0.8325,9.9522,0.0224,-0.0024,0.0246
20.58,0.6224,-0.7449,9.7799,-0.0045,-0.0341,-0.0307
20.6,0.6344,-0.7512,10.0538,0.0058,0.0135,0.0135
20.62,0.7095,-0.5651,9.828,0.0144,0.0125,-0.0239
20.64,0.3519,-0.8602,9.7721,-0.0249,-0.0484,-0.0128
20.66,0.8446,-0.6032,9.848,0.0009,-0.0558,0.0373
20.68,0.5543,-0.9859,9.921,-0.0214,-0.0135,0.0044
20.7,0.6197,-0.8402,9.8578,0.0294,0.0045,0.0081
20.72,0.7034,-0.5965,9.8189,0.0614,0.014,0.0336
20.74,0.6547,-1.0371,9.817,0.1253,0.053,0.0459
20.76,0.6635,-0.7774,9.3502,0.153,0.1019,0.0332
20.78,0.7672,-0.7849,9.4612,0.1451,0.1031,-0.0178
20.8,0.7467,-1.0446,9.2551,0.0318,0.0215,-0.1103
20.82,0.2631,-0.8285,9.055,-0.2199,-0.1446,-0.1654
20.84,0.0527,-0.8734,8.8338,-0.5317,-0.2372,-0.2695
20.86,0.0637,-0.6632,9.3052,-0.62,-0.1697,-0.297
20.88,-0.4917,-0.6824,10.0307,-0.5788,0.009,-0.2349
20.9,0.3094,-0.3472,12.0309,-0.2976,0.262,-0.1138
20.92,0.4802,-0.6349,12.1751,0.0717,0.3448,0.0153
20.94,1.7981,-0.444,11.775,0.4354,0.2119,0.1411
20.96,1.3769,-0.5329,9.9034,0.5749,-0.0433,0.2123
20.98,1.2536,-0.5868,9.4024,0.603,-0.2218,0.2933
21.0,0.7491,-0.7223,9.2246,0.4351,-0.2005,0.2314
21.02,0.6651,-0.9266,9.269,0.1331,-0.1226,0.1261
21.04,0.6993,-0.8984,9.1722,-0.0543,0.0265,0.0511
21.06,0.4553,-0.9578,9.4903,-0.176,0.0576,0.0353
21.08,0.6915,-0.7338,9.8601,-0.1512,0.1027,-0.0205
21.1,0.5895,-0.7387,9.879,-0.1088,0.0499,-0.0256
21.12,0.3414,-0.6944,9.9285,-0.0548,-0.0173,-0.0026
21.14,0.5427,-0.8558,10.1067,-0.0588,-0.0376,-0.0188
21.16,0.7553,-0.7719,9.8733,0.0058,-0.0017,0.0244
21.18,0.8362,-0.6582,10.0816,-0.0295,-0.0058,0.0263
21.2,0.359,-0.7479,9.5799,-0.0362,-0.017,0.0087
21.22,0.8442,-0.4804,10.2454,0.0414,0.0049,0.0176
21.24,0.4139,-0.857,9.7949,0.0018,-0.0267,-0.0188
21.26,0.4842,-0.5869,10.1318,0.0415,0.0299,0.0299
21.28,0.8815,-0.5432,10.065,0.0498,0.004,-0.0286
21.3,0.6279,-1.0968,9.7689,0.0297,-0.0199,-0.0337
21.32,0.8397,-0.4036,9.8653,0.0823,0.0293,-0.0407
21.34,0.8378,-0.7842,9.6166,0.1213,0.0458,-0.036
21.36,0.5902,-0.4581,9.4916,0.1036,0.0842,0.0298
21.38,0.5169,-0.829,9.3408,-0.0283,-0.0104,0.0861
21.4,0.3779,-0.8073,9.4782,-0.1905,-0.1192,0.1266
21.42,0.2794,-0.6509,9.0991,-0.4085,-0.1814,0.2055
21.44,0.2435,-0.8844,9.349,-0.5226,-0.1418,0.2325
21.46,-0.0713,-0.8146,10.0951,-0.5436,0.0506,0.1592
21.48,0.1922,-0.8272,11.6872,-0.2928,0.2174,0.1191
21.5,0.4017,-1.0634,12.1884,0.0378,0.3125,-0.01
21.52,1.0776,-1.0033,11.3933,0.3528,0.173,-0.1189
21.54,1.3502,-0.928,10.0347,0.4956,-0.0337,-0.2306
21.56,1.1476,-0.6768,9.2596,0.5619,-0.1856,-0.2223
21.58,1.0444,-0.7229,9.0286,0.3767,-0.1765,-0.2041
21.6,0.718,-0.8432,9.0746,0.1165,-0.1236,-0.1446
21.62,0.4221,-0.81,9.151,-0.0334,0.0324,-0.0678
21.64,0.512,-0.4685,9.5712,-0.1258,0.0599,-0.0085
21.66,0.5153,-0.4959,9.8013,-0.1425,0.0837,0.0409
21.68,0.6072,-0.8363,9.4493,-0.1535,0.0541,0.0185
21.7,0.3439,-0.5329,9.7934,-0.0627,-0.0177,0.035
21.72,0.6262,-0.8418,9.9253,-0.024,-0.017,0.0237
21.74,0.3557,-0.8105,9.6218,-0.0477,-0.0226,0.0149
21.76,0.1766,-0.7579,9.8566,-0.0319,-0.0359,-0.0049
21.78,0.6582,-1.0973,9.8107,0.0208,-0.0149,0.0338
21.8,0.6782,-0.7231,9.8522,0.0036,0.0083,0.013
21.82,0.7398,-0.7343,9.8431,0.0926,0.0005,0.0963
21.84,0.4839,-0.9334,9.7117,0.1199,-0.0108,0.0534
21.86,0.6162,-0.8278,9.4928,0.1734,0.1057,0.0625
21.88,0.5006,-0.8212,9.2029,0.1405,0.0923,0.0125
21.9,0.4882,-1.1796,9.2634,0.0712,0.0217,-0.0392
21.92,0.5519,-0.9876,8.9704,-0.1477,-0.0765,-0.1576
21.94,0.0181,-0.8661,8.7528,-0.4214,-0.2133,-0.2647
21.96,-0.0755,-0.7424,8.7287,-0.6258,-0.2428,-0.3054
21.98,-0.3616,-0.7138,9.7076,-0.6167,-0.0501,-0.2721
22.0,-0.4228,-0.6831,10.7389,-0.4815,0.1682,-0.1822
22.02,0.6066,-0.276,12.7563,-0.1424,0.3136,-0.0114
22.04,0.6559,-0.4064,11.7026,0.2596,0.2772,0.0782
22.06,1.4301,-0.8355,10.3318,0.5564,0.0568,0.2141
22.08,1.3303,-0.6861,9.2566,0.6417,-0.1546,0.2552
22.1,0.5779,-0.884,8.7965,0.4912,-0.257,0.2331
22.12,0.4946,-1.178,8.7231,0.2405,-0.1348,0.1683
22.14,0.5766,-0.8497,9.0858,0.0506,0.0152,0.0932
22.16,0.4651,-0.8917,9.2643,-0.1139,0.0922,0.0542
22.18,0.1814,-1.0434,9.2555,-0.1504,0.0802,-0.0187
22.2,0.4407,-0.9461,9.4489,-0.1356,0.0239,-0.0205
22.22,0.2248,-0.7765,9.5432,-0.0484,0.0151,-0.0263
22.24,0.5027,-0.8481,9.7989,-0.033,0.0036,-0.0163
22.26,0.5522,-0.5451,9.9559,0.0188,0.0249,-0.0057
22.28,0.391,-0.9367,9.8895,0.045,-0.0166,0.0066
22.3,0.2785,-0.9086,9.4513,-0.0606,0.001,-0.0169
22.32,0.4554,-0.703,9.6842,0.0201,0.004,0.004
22.34,0.6311,-0.6961,9.9184,0.0127,0.0321,-0.0138
22.36,0.3553,-0.8351,9.6301,0.008,-0.0214,-0.0364
22.38,0.4026,-0.9012,9.6565,0.0146,-0.0041,-0.0385
22.4,0.5147,-0.8473,9.5024,0.0884,-0.0073,-0.0703
22.42,0.4254,-0.5868,9.6211,0.1492,0.0428,-0.0176
22.44,0.6845,-0.7401,9.2849,0.1558,0.099,-0.0123
22.46,0.4239,-0.7029,8.8664,0.1174,0.0753,0.0459
22.48,0.4129,-0.9496,8.9718,-0.0346,-0.0283,0.0696
22.5,0.2971,-0.7824,9.0349,-0.2687,-0.1447,0.1906
22.52,0.0053,-0.9108,8.6566,-0.4829,-0.2415,0.28
22.54,-0.422,-0.9783,9.2006,-0.6489,-0.1644,0.2797
22.56,-0.0813,-0.9529,10.2636,-0.5514,0.0474,0.2202
22.58,-0.2994,-1.3325,12.0382,-0.2615,0.272,0.0922
22.6,0.8641,-1.1528,12.5654,0.0908,0.3293,-0.021
22.62,1.1584,-1.2806,11.0411,0.4247,0.1912,-0.1676
22.64,1.4092,-1.0756,9.759,0.6024,-0.0744,-0.2332
22.66,1.3343,-0.7365,9.1704,0.5663,-0.1791,-0.2402
22.68,0.8544,-0.7104,8.9382,0.3916,-0.1903,-0.2175
22.7,0.4917,-0.8376,9.0263,0.169,-0.1027,-0.1632
22.72,0.3067,-1.0162,8.9632,-0.1164,0.0135,-0.0667
22.74,0.3378,-0.8101,8.9829,-0.2064,0.0493,-0.0291
22.76,0.405,-0.9208,9.4829,-0.1836,0.068,-0.0035
22.78,0.3617,-0.8427,9.6678,-0.1511,0.0178,-0.0005
22.8,0.4343,-0.9557,9.9389,-0.0455,0.0175,0.027
22.82,0.6197,-0.851,9.9441,-0.0343,0.0363,0.0104
22.84,0.5989,-0.6716,9.9138,-0.0146,-0.0275,0.0065
22.86,0.5661,-0.93,9.8261,0.0281,0.0097,0.0171
22.88,0.5694,-0.7479,9.86,0.0013,0.0331,0.0151
22.9,0.5184,-0.6063,9.892,0.043,0.0252,0.0204
22.92,0.621,-0.7519,9.6549,-0.015,-0.0279,0.0108
22.94,0.5111,-0.8453,9.9195,-0.0009,0.0035,-0.0246
22.96,0.3916,-0.7854,9.8101,-0.0085,-0.0099,-0.0006
22.98,0.4182,-0.7238,9.6903,0.0583,0.0069,0.0288
23.0,0.7846,-0.9379,9.559,0.0803,0.0055,0.0473
23.02,0.6273,-0.9603,9.543,0.1059,0.0622,0.0267
23.04,0.5872,-1.1239,9.5456,0.1087,0.055,-0.0434
23.06,0.6833,-0.8524,9.2736,-0.0508,-0.0803,-0.0945
23.08,0.6384,-0.7993,9.3738,-0.1993,-0.1554,-0.1218
23.1,0.2035,-0.6299,8.9324,-0.4243,-0.2015,-0.1875
23.12,-0.101,-0.649,9.5106,-0.4827,-0.1279,-0.1759
23.14,-0.3321,-0.6447,10.5836,-0.4228,0.0717,-0.1439
23.16,0.0325,-0.5849,11.4435,-0.1717,0.2422,-0.0711
23.18,0.9993,-0.2029,11.7689,0.0874,0.2094,0.0348
23.2,1.2714,-0.7829,10.9784,0.3864,0.1368,0.1337
23.22,1.0538,-0.6793,9.535,0.4496,-0.1078,0.1649
23.24,1.1395,-0.781,9.4105,0.4682,-0.1624,0.2292
23.26,0.8505,-0.7758,9.1329,0.2699,-0.1661,0.1545
23.28,0.654,-0.6855,9.5341,0.0855,0.0206,0.1156
23.3,0.5426,-0.7514,9.4537,-0.0699,0.0757,0.0265
23.32,0.7313,-0.8027,9.5648,-0.1124,0.0923,0.0226
23.34,0.5065,-0.8493,9.6469,-0.1446,0.0697,-0.0365
23.36,0.4282,-0.7453,9.6959,-0.0959,0.0147,-0.0421
23.38,0.3581,-0.6652,9.9313,-0.0091,0.0008,-0.0306
23.4,0.5986,-0.6061,9.9725,0.0026,-0.0084,-0.0325
23.42,0.5733,-0.9147,9.9447,0.0148,-0.0127,-0.0275
23.44,0.8071,-0.9146,9.6971,-0.0287,0.0308,0.016
23.46,0.6651,-1.004,9.7185,-0.0449,0.0065,-0.0325
23.48,0.8831,-0.6952,10.2737,-0.0115,-0.0371,0.0131
23.5,0.7879,-0.7879,9.9007,0.0421,0.0121,-0.0245
23.52,0.6987,-0.6931,10.0117,0.0136,0.007,-0.0233
23.54,0.7057,-0.8165,9.6009,0.0888,-0.0198,-0.0552
23.56,0.8862,-0.5696,9.7468,0.1535,0.0649,-0.0641
23.58,0.7518,-0.7928,9.4635,0.1239,0.0652,0.0137
23.6,0.5027,-0.4946,9.2029,0.0828,0.0449,0.014
23.62,0.8459,-0.7614,9.1671,-0.1132,-0.0394,0.1346
23.64,0.1651,-0.7525,8.8985,-0.3978,-0.2184,0.1827
23.66,0.1326,-1.0124,8.9505,-0.5721,-0.245,0.2374
23.68,-0.435,-1.2238,9.5595,-0.6428,-0.1475,0.2142
23.7,-0.5925,-1.389,10.7745,-0.4632,0.1033,0.1894
23.72,0.6604,-0.9335,12.5915,-0.1688,0.2711,0.0593
23.74,1.0513,-1.1642,12.0382,0.2297,0.287,-0.0878
23.76,1.5964,-1.1291,10.4792,0.4511,0.0743,-0.21
23.78,1.61,-0.7611,9.2261,0.6198,-0.1019,-0.2609
23.8,1.3022,-0.8304,9.0973,0.5029,-0.2088,-0.2137
23.82,0.8064,-0.7686,8.8073,0.215,-0.1733,-0.2613
23.84,0.5733,-0.7268,9.1922,0.0769,-0.0408,-0.0845
23.86,0.517,-0.8883,9.2904,-0.1324,0.0666,-0.0507
23.88,0.3848,-0.6078,9.2903,-0.1646,0.0529,-0.0075
23.9,0.5117,-0.656,9.7903,-0.1394,0.075,0.0458
23.92,0.4173,-0.9553,9.5902,-0.1191,-0.0083,0.0268
23.94,0.6394,-0.8457,10.0674,-0.0327,0.0016,0.0559
23.96,0.6407,-0.7902,9.8583,0.023,-0.0337,0.0421
23.98,0.6968,-0.8902,9.7956,0.0568,-0.0104,-0.0005
24.0,0.505,-0.8382,9.4341,-0.0521,-0.0113,-0.0261
24.02,0.5053,-0.8468,9.7817,0.0123,0.0111,0.0072
24.04,0.912,-0.6819,9.9646,0.0173,-0.003,0.047
24.06,0.7956,-1.1094,9.6122,0.0323,-0.0166,0.0323
24.08,0.5524,-0.7718,9.7712,0.0465,0.0133,0.0292
24.1,0.8807,-1.0046,9.7041,0.1415,0.0511,0.0336
24.12,0.739,-1.1115,9.374,0.1211,0.0668,0.0067
24.14,0.5979,-1.0486,8.9244,0.0387,0.0193,-0.0566
24.16,0.8442,-0.9094,9.5574,-0.0749,0.0103,-0.1155
24.18,0.5388,-1.3229,8.7384,-0.3277,-0.1826,-0.2026
24.2,0.1414,-0.9626,8.9567,-0.4521,-0.2422,-0.2427
24.22,-0.2988,-0.8675,9.3353,-0.5313,-0.1045,-0.2126
24.24,-0.2395,-0.6561,10.4708,-0.4562,0.1009,-0.1914
24.26,0.3274,-0.7165,12.2433,-0.1362,0.2606,-0.0558
24.28,0.7706,-0.9113,11.5783,0.1427,0.2558,0.0619
24.3,1.3071,-0.5989,10.7326,0.419,0.1098,0.1274
24.32,1.3013,-0.631,9.3569,0.5562,-0.0847,0.2242
24.34,1.1997,-0.7696,9.1754,0.5204,-0.1506,0.2641
24.36,0.63,-0.8901,9.0486,0.2878,-0.1488,0.1746
24.38,0.4699,-1.0626,8.8969,0.0408,-0.0624,0.1193
24.4,0.2627,-0.9882,9.2556,-0.0702,0.0521,0.0639
24.42,0.5275,-0.6798,9.4894,-0.1595,0.0747,0.0172
24.44,0.4009,-1.0078,9.5222,-0.1387,0.082,-0.0087
24.46,0.3263,-1.0111,9.8827,-0.0964,0.0199,-0.023
24.48,0.4832,-0.9597,9.7004,-0.05,-0.0327,-0.0362
24.5,0.7471,-0.6332,9.871,0.018,-0.0109,0.0228
24.52,0.5263,-1.0319,9.6239,-0.0211,0.0098,0.019
24.54,0.6313,-0.8583,9.7746,-0.0015,0.0159,-0.0067
24.56,0.685,-1.0038,9.7052,-0.0281,-0.0195,0.0013
24.58,0.6142,-0.998,9.8695,0.0326,-0.0504,0.0035
24.6,0.6258,-0.8724,9.9609,0.0396,-0.0073,0.0266
24.62,0.6951,-0.9003,9.5376,0.0775,0.0199,-0.0519
24.64,0.5074,-0.9002,9.7006,0.1488,0.0751,-0.0069
24.66,0.5682,-0.6715,9.3641,0.1673,0.1015,0.033
24.68,0.5019,-0.938,9.1773,0.034,0.0378,0.0666
24.7,0.3703,-0.6291,8.958,-0.1131,-0.0824,0.1484
24.72,0.3668,-0.826,8.7024,-0.414,-0.2061,0.2309
24.74,-0.0971,-1.063,8.5573,-0.5951,-0.2086,0.2722
24.76,-0.5334,-1.2733,9.6129,-0.5547,-0.0482,0.2074
24.78,-0.1518,-1.3342,11.241,-0.384,0.1473,0.2118
24.8,0.1253,-1.4046,12.4815,-0.1092,0.2886,-0.0159
24.82,0.8168,-1.4289,11.5933,0.2357,0.2363,-0.0952
24.84,1.4451,-1.2263,10.3979,0.475,0.0367,-0.2163
24.86,1.3257,-1.1428,8.9323,0.5711,-0.15,-0.2295
24.88,0.938,-0.9964,8.7249,0.4175,-0.2215,-0.2661
24.9,0.3981,-1.2028,8.6694,0.1977,-0.1583,-0.1633
24.92,0.3251,-0.7836,9.0209,0.0189,-0.0352,-0.0784
24.94,0.2502,-0.9673,8.9558,-0.1417,0.0645,-0.0464
24.96,0.3829,-0.9511,9.3212,-0.2,0.0384,0.0011
24.98,0.3903,-0.8765,9.6523,-0.1086,0.0604,0.0413
25.0,0.5249,-0.8299,9.7517,-0.054,0.0152,0.047
25.02,0.532,-1.2251,9.8088,-0.0701,0.0182,0.0311
25.04,0.7884,-1.1034,9.5758,-0.0271,-0.0224,-0.0041
25.06,0.4566,-0.7139,9.635,-0.0091,-0.0161,0.0197
25.08,0.912,-0.735,9.8566,0.0352,0.0273,-0.0061
25.1,0.5779,-0.6623,9.8473,0.0019,0.0596,0.0057
25.12,0.3894,-1.099,9.5892,-0.0562,-0.0378,0.0177
25.14,0.5141,-0.9155,9.7494,0.0154,0.0162,0.0365
25.16,0.4922,-0.6902,10.008,0.0117,-0.0168,0.037
25.18,0.8141,-0.8587,9.9078,0.0667,0.0267,0.0686
25.2,0.831,-0.7859,9.635,0.1022,0.0345,0.0611
25.22,0.7995,-0.9864,9.554,0.2347,0.1286,0.0211
25.24,0.7717,-1.095,9.0949,0.1032,0.0753,-0.028
25.26,0.6212,-1.1976,8.847,0.0097,-0.0031,-0.1475
25.28,0.4576,-1.0235,8.8454,-0.2366,-0.1393,-0.2378
25.3,-0.0509,-1.3066,8.4421,-0.5566,-0.2418,-0.2548
25.32,-0.6839,-0.6905,8.7262,-0.7215,-0.2356,-0.3318
25.34,-0.6081,-0.7188,9.9747,-0.6916,0.0225,-0.3067
25.36,-0.1535,-0.5597,12.2353,-0.4099,0.2687,-0.1523
25.38,0.6236,-0.5288,13.4697,0.0222,0.3575,-0.0129
25.4,1.4701,-0.6029,11.8586,0.4724,0.2559,0.1723
25.42,1.6844,-0.4706,10.185,0.6485,-0.0064,0.2996
25.44,1.6608,-0.705,8.8892,0.6765,-0.2152,0.2984
25.46,1.2123,-0.7344,8.9733,0.5098,-0.2427,0.2627
25.48,0.8186,-1.1457,8.9981,0.2372,-0.1271,0.2038
25.5,0.6649,-1.0601,9.096,-0.0686,0.0702,0.0738
25.52,0.5629,-0.9652,9.3768,-0.1458,0.0973,-0.0161
25.54,0.5689,-0.901,9.5809,-0.1751,0.1242,-0.0357
25.56,0.2718,-1.0056,9.6254,-0.1535,0.0315,-0.0377
25.58,0.6163,-0.831,9.8886,-0.0963,0.0283,-0.0421
25.6,0.8146,-0.9042,10.0436,-0.0343,-0.0001,-0.0562
25.62,0.5296,-0.5921,9.8099,0.0006,-0.0289,-0.0382
25.64,0.7833,-0.582,9.8323,0.0297,0.0294,0.032
25.66,0.7131,-0.9849,9.6799,0.028,-0.0116,-0.028
25.68,0.3205,-0.7025,9.8777,-0.0497,0.0306,-0.0333
25.7,0.5726,-0.7707,9.8331,-0.0336,0.0171,0.0077
25.72,0.6269,-0.8991,9.8431,-0.0332,-0.0257,-0.0041
25.74,0.8683,-0.954,10.209,0.0338,0.0073,-0.0286
25.76,0.6236,-0.9207,9.8855,0.0109,-0.0299,-0.0511
25.78,0.8524,-0.7539,9.7311,0.0587,-0.0136,-0.0405
25.8,0.7741,-0.9261,9.7416,0.1357,0.0935,-0.0488
25.82,0.4404,-0.9312,9.4086,0.1267,0.0967,-0.0164
25.84,0.9999,-0.5875,9.3435,0.1307,0.0971,0.0463
25.86,0.8519,-0.4549,9.2424,-0.0316,-0.025,0.1371
25.88,0.4506,-0.5886,8.8861,-0.3076,-0.138,0.2177
25.9,0.08,-0.9878,8.915,-0.5106,-0.2454,0.275
25.92,-0.196,-1.1544,9.1601,-0.6292,-0.1427,0.2619
25.94,-0.4762,-1.155,10.4548,-0.5542,0.1094,0.2155
25.96,0.3432,-1.2134,12.4355,-0.3082,0.2636,0.0751
25.98,0.8304,-1.5698,12.5421,0.1398,0.3227,-0.0605
26.0,1.4331,-1.3533,11.2539,0.4401,0.1176,-0.2156
26.02,1.5666,-1.1423,9.8517,0.6097,-0.0664,-0.2215
26.04,1.1439,-0.8676,8.8731,0.5389,-0.2559,-0.2624
26.06,0.838,-0.9998,8.8044,0.3337,-0.2271,-0.2263
26.08,0.8751,-0.612,9.1038,0.0992,-0.0527,-0.1349
26.1,0.7989,-0.7528,9.1794,-0.1055,0.0311,-0.0741
26.12,0.5746,-0.6563,9.462,-0.2141,0.1059,-0.0024
26.14,0.5343,-0.5832,9.5866,-0.1074,0.0615,0.0432
26.16,0.4052,-0.7258,9.4513,-0.1252,0.0065,0.0223
26.18,0.576,-0.7683,9.862,-0.065,0.0063,0.0717
26.2,0.5683,-0.9163,9.7357,-0.0575,-0.0346,0.0036
26.22,0.7599,-0.6276,9.8728,0.0122,-0.0193,0.0635
26.24,0.7469,-1.2046,9.6272,-0.0515,0.0303,0.0155
26.26,0.8797,-0.6447,9.845,-0.0377,0.0094,-0.0043
26.28,0.633,-0.6707,9.6447,-0.0285,-0.0087,0.0416
26.3,0.5914,-0.9799,9.7753,-0.0405,-0.0275,0.002
26.32,0.6249,-0.9096,9.6465,0.0099,-0.0047,0.0204
26.34,0.752,-0.7951,9.8254,0.0986,0.0235,0.0754
26.36,0.9145,-1.2076,9.5648,0.128,0.0252,0.0246
26.38,0.8336,-0.8631,9.3408,0.1328,0.0573,-0.003
26.4,0.7998,-1.0395,9.0992,0.1217,0.0675,-0.0545
26.42,0.3083,-1.4065,9.1723,-0.0169,-0.0178,-0.1259
26.44,0.4796,-0.8585,9.1895,-0.2547,-0.1408,-0.1517
26.46,0.0951,-0.9784,8.711,-0.4934,-0.2522,-0.2648
26.48,-0.2759,-0.8272,8.9391,-0.6885,-0.1376,-0.2419
26.5,-0.2248,-0.4463,10.5748,-0.5066,0.0175,-0.2128
26.52,-0.1855,-0.376,11.9164,-0.2917,0.2403,-0.1085
26.54,0.973,-0.2557,12.8099,0.0864,0.3385,0.0369
26.56,1.2536,-0.4554,11.0976,0.4219,0.1849,0.1585
26.58,1.7628,-0.9108,9.7904,0.598,-0.0293,0.2864
26.6,1.2587,-1.0512,8.7524,0.5895,-0.1572,0.3416
26.62,0.8931,-0.969,9.0626,0.3788,-0.1977,0.2081
26.64,0.7894,-1.045,8.9372,0.1514,-0.0987,0.1563
26.66,0.5409,-1.001,8.9064,-0.1012,0.0244,0.071
26.68,0.6038,-0.8177,9.441,-0.1501,0.1195,0.006
26.7,0.2087,-1.4458,9.2907,-0.2027,0.0252,-0.049
26.72,0.3268,-1.0472,9.5348,-0.0709,0.047,-0.0626
26.74,0.206,-0.7622,9.58,-0.0939,-0.0266,-0.0098
26.76,0.4856,-1.2391,9.5762,-0.0201,-0.0339,-0.0246
26.78,0.3252,-1.0596,9.4567,-0.0733,-0.0604,-0.0508
26.8,0.1721,-1.1464,9.7156,-0.0093,-0.016,-0.0139
26.82,0.8577,-0.9365,9.6894,-0.0103,-0.0554,-0.0267
26.84,0.6066,-0.5787,9.7308,0.0173,0.0142,0.013
26.86,0.7648,-0.6724,9.5109,-0.0463,0.0093,-0.0325
26.88,0.6641,-1.0181,9.8855,-0.0255,-0.0309,-0.0199
26.9,0.628,-1.0594,9.7484,0.0631,0.0194,-0.0281
26.92,0.6333,-0.4743,9.6605,0.0705,0.0207,-0.0296
26.94,0.6938,-1.0241,9.2287,0.1614,0.0947,-0.034
26.96,0.6286,-0.6796,9.1512,0.145,0.1135,0.0162
26.98,0.7171,-0.8449,9.0853,0.0216,0.0505,0.0815
27.0,0.4516,-0.7066,8.7837,-0.1589,-0.1372,0.1122
27.02,0.337,-1.0023,8.9267,-0.3689,-0.2067,0.2368
27.04,-0.2251,-1.1792,8.7945,-0.6017,-0.1961,0.2626
27.06,-0.3174,-0.9308,9.6814,-0.5882,-0.0602,0.2728
27.08,-0.3207,-1.2597,11.6502,-0.4001,0.1996,0.1213
27.1,0.0737,-1.2597,12.3435,-0.0721,0.2767,0.0363
27.12,0.881,-1.4377,11.9434,0.2282,0.2372,-0.1227
27.14,1.4478,-0.8913,10.1937,0.5388,0.0402,-0.2081
27.16,1.32,-1.2607,8.9276,0.5798,-0.1542,-0.2835
27.18,0.6914,-0.9738,8.6638,0.4597,-0.2215,-0.2652
27.2,0.4124,-0.8057,8.8004,0.2138,-0.0992,-0.1975
27.22,0.5579,-0.6908,8.9527,0.0386,-0.0457,-0.1268
27.24,0.2713,-0.965,8.9177,-0.1353,0.0727,-0.0415
27.26,0.5859,-0.7564,9.306,-0.1551,0.076,0.0054
27.28,0.283,-0.8676,9.3391,-0.1175,0.0582,0.0379
27.3,0.3794,-0.8988,9.4593,-0.0838,-0.0046,0.0321
27.32,0.4812,-0.8964,9.9543,-0.0541,0.0106,0.0266
27.34,0.3948,-1.1495,9.894,-0.038,0.005,0.0745
27.36,0.2384,-0.9879,9.7971,-0.0267,0.0085,-0.0155
27.38,0.5112,-1.2382,9.7548,-0.0374,-0.0227,-0.0141
27.4,0.1535,-0.9814,9.5894,0.0135,-0.0318,-0.0089
27.42,0.2611,-0.8822,9.6729,0.0156,-0.0342,-0.0039
27.44,0.5216,-1.1103,9.8184,0.078,-0.0193,0.0477
27.46,0.8968,-0.7949,9.3235,0.1145,0.0319,0.0286
27.48,0.9314,-0.9819,9.549,0.1942,0.0808,0.0494
27.5,0.7624,-0.9309,9.291,0.1856,0.1155,0.0424
27.52,0.5407,-1.2532,9.1945,0.0436,0.0371,-0.0783
27.54,0.695,-1.1595,9.227,-0.1642,-0.1264,-0.1467
27.56,0.2346,-0.6083,8.5449,-0.3944,-0.2275,-0.235
27.58,-0.1067,-0.777,9.0144,-0.6167,-0.2251,-0.2705
27.6,-0.3109,-0.7024,9.8071,-0.6331,-0.0572,-0.2672
27.62,-0.6427,-0.4344,11.6034,-0.4912,0.1761,-0.1576
27.64,0.0761,-0.4446,12.7722,-0.101,0.3398,-0.0591
27.66,1.336,-0.5887,12.5337,0.2977,0.2574,0.1258
27.68,1.7937,-0.7911,10.1089,0.6021,0.0687,0.2653
27.7,1.3503,-0.9526,8.7413,0.6104,-0.2198,0.2714
27.72,0.707,-0.7869,8.9663,0.5282,-0.2232,0.2491
27.74,0.6332,-1.1484,8.8386,0.2309,-0.1305,0.1881
27.76,0.6033,-1.0261,8.9625,0.0216,-0.0042,0.1242
27.78,0.2339,-0.992,9.3808,-0.1173,0.1389,0.0774
27.8,0.2205,-1.0674,9.1283,-0.2247,0.0497,0.0312
27.82,0.1957,-1.1187,9.1574,-0.1568,0.0166,-0.0286
27.84,0.5929,-0.7092,9.6347,-0.092,0.0075,-0.0562
27.86,0.3458,-0.9429,9.7848,-0.0575,-0.0008,-0.0484
27.88,0.4551,-1.0058,9.8458,0.0084,0.0054,-0.0258
27.9,1.015,-0.9462,9.7183,-0.0208,-0.0063,-0.0058
27.92,0.4914,-0.7026,9.9148,-0.0417,0.0098,-0.011
27.94,0.5993,-0.954,9.6412,-0.0682,-0.0335,-0.058
27.96,0.7302,-0.8131,9.5978,-0.0354,-0.0425,-0.0169
27.98,0.7373,-0.8075,9.8233,0.0208,-0.0155,-0.006
28.0,0.5706,-0.7789,9.9343,0.0252,-0.0216,0.0066
28.02,0.8806,-0.7961,9.8554,0.0667,0.0003,-0.0132
28.04,0.824,-0.592,9.7841,0.1104,0.0284,-0.0435
28.06,0.7958,-0.7297,9.3866,0.136,0.0243,-0.0271
28.08,0.9255,-0.9665,9.4603,0.1545,0.0873,0.0034
28.1,0.4563,-0.8069,8.9904,0.0319,0.03,0.0626
28.12,0.7612,-0.8532,8.9634,-0.1856,-0.089,0.1559
28.14,0.4305,-0.8326,8.9671,-0.4215,-0.2101,0.258
28.16,0.0623,-0.6744,9.0351,-0.5915,-0.2054,0.316
28.18,-0.2932,-1.1394,9.8392,-0.6163,-0.0151,0.2428
28.2,-0.2808,-1.2504,11.8774,-0.4327,0.1594,0.1641
28.22,0.3483,-1.5244,12.5012,-0.0538,0.3018,-0.0002
28.24,1.4479,-1.1297,12.0897,0.3084,0.2512,-0.1383
28.26,1.6727,-1.0272,10.3767,0.5618,0.001,-0.2194
28.28,1.7033,-0.8237,9.2847,0.6309,-0.1918,-0.2689
28.3,1.1342,-0.5214,8.8784,0.4793,-0.2045,-0.2274
28.32,0.8809,-0.4651,9.1073,0.2395,-0.12,-0.1709
28.34,0.8124,-0.8556,9.4062,0.0261,0.0423,-0.1108
28.36,0.6719,-0.6518,9.203,-0.1319,0.0691,-0.0231
28.38,0.6895,-0.5258,9.6835,-0.1726,0.1147,0.0022
28.4,0.6975,-0.8447,9.6978,-0.1481,0.0624,0.0217
28.42,0.5571,-0.588,9.8012,-0.0629,0.0152,0.0626
28.44,0.527,-0.7543,9.8298,-0.0326,-0.0344,0.0071
28.46,0.364,-0.6745,9.7406,-0.0428,-0.0432,0.0117
28.48,0.8381,-1.0786,9.6998,-0.031,-0.0321,0.0246
28.5,0.3124,-0.9395,9.6883,-0.0306,-0.0228,0.0055
28.52,0.6711,-0.7805,9.729,-0.013,-0.0071,0.0376
28.54,0.8395,-0.8682,10.1536,0.1077,0.0325,0.052
28.56,0.8278,-1.0302,9.1807,0.0736,0.0328,-0.0106
28.58,0.8932,-0.9486,9.8105,0.2018,0.1232,0.0093
28.6,0.6332,-1.0702,9.2018,0.1054,0.0593,-0.0415
28.62,0.9532,-0.9642,9.062,0.0118,0.0021,-0.0826
28.64,0.4905,-1.0503,9.0663,-0.189,-0.0776,-0.1506
28.66,0.1813,-0.9893,9.0811,-0.411,-0.246,-0.2358
28.68,0.1071,-0.7668,9.2877,-0.6007,-0.2004,-0.269
28.7,-0.4819,-0.4706,9.7848,-0.6283,-0.0278,-0.2367
28.72,-0.4553,-0.6782,11.4363,-0.4007,0.1963,-0.1047
28.74,0.6105,-0.3989,12.7709,-0.0175,0.2814,-0.0137
28.76,1.2782,-0.5358,11.5172,0.3573,0.239,0.1206
28.78,1.689,-0.5955,10.1271,0.5986,-0.0088,0.226
28.8,1.099,-0.9034,9.0686,0.608,-0.1712,0.2855
28.82,0.541,-0.9666,8.7195,0.3647,-0.239,0.218
28.84,0.8992,-1.0821,8.8114,0.1738,-0.0971,0.1537
28.86,0.4236,-1.1765,9.1569,-0.0518,0.0405,0.1058
28.88,0.3525,-1.0778,9.1056,-0.1438,0.0598,0.0512
28.9,0.4557,-0.993,9.5872,-0.1816,0.0952,-0.013
28.92,0.5063,-0.8998,9.729,-0.1071,0.054,-0.0345
28.94,0.3815,-0.7109,9.7087,-0.0459,-0.0403,-0.0529
28.96,0.3596,-1.0939,9.8568,-0.006,-0.0369,-0.028
28.98,0.7394,-0.781,9.9552,-0.0091,-0.0192,0.0063
29.0,0.1627,-1.1254,9.5452,-0.0301,-0.0385,0.0043
29.02,0.2083,-1.0773,9.5593,-0.0146,-0.0479,-0.0406
29.04,0.5646,-0.7956,9.8763,0.0485,-0.0044,-0.039
29.06,0.9355,-0.7253,9.9596,0.0635,0.0186,-0.0218
29.08,0.6237,-0.8069,9.4816,0.0846,0.0021,-0.0183
29.1,0.861,-0.8969,9.5026,0.1537,0.0634,0.0069
29.12,0.694,-0.896,9.3875,0.1149,0.0777,0.0161
29.14,0.6822,-0.7778,9.0635,0.0744,0.101,0.0201
29.16,0.5016,-0.8951,9.1956,-0.055,0.0042,0.1257
29.18,0.5769,-0.7974,8.8866,-0.2341,-0.1334,0.2004
29.2,0.0449,-0.8166,9.0033,-0.4395,-0.1751,0.251
29.22,-0.1636,-1.2951,9.0945,-0.5655,-0.1267,0.2545
29.24,-0.6728,-1.3511,10.2629,-0.4938,0.0689,0.1711
29.26,0.279,-1.058,12.1535,-0.221,0.2709,0.0779
29.28,1.169,-1.2709,12.6534,0.1431,0.3174,-0.0535
29.3,1.066,-1.0757,10.5188,0.4517,0.1086,-0.109
29.32,1.5243,-1.208,9.3271,0.5155,-0.1024,-0.2171
29.34,1.012,-1.0768,8.7724,0.4608,-0.216,-0.228
29.36,0.9485,-0.9055,9.0587,0.2789,-0.186,-0.1907
29.38,0.3741,-1.0706,8.9211,0.0907,-0.0808,-0.1167
29.4,0.398,-0.993,8.9561,-0.0893,0.0306,-0.0646
29.42,0.3036,-1.0073,9.156,-0.1403,0.0944,0.0078
29.44,0.2957,-0.8571,9.348,-0.1198,0.0558,0.0027
29.46,0.3795,-1.1167,9.3818,-0.1712,0.0386,0.0435
29.48,0.4284,-0.8233,9.5144,-0.0123,-0.0359,0.0202
29.5,0.2007,-1.1911,9.7224,-0.0092,0.0178,0.0073
29.52,0.7036,-0.8462,9.8855,0.0047,0.0172,-0.0209
29.54,0.5328,-0.9039,9.7904,0.043,-0.0145,0.014
29.56,0.4966,-0.9173,9.477,-0.0109,-0.0018,0.0152
29.58,0.6902,-0.9802,9.7809,0.0272,0.0178,-0.0326
29.6,0.5224,-0.9946,9.7495,-0.0179,0.0043,0.009
29.62,0.6645,-1.1334,9.5851,0.0193,0.0002,-0.0105
29.64,0.5755,-1.2038,9.8373,-0.0113,-0.0162,-0.0149
29.66,0.5443,-0.7581,9.8288,0.0471,-0.0028,0.0126
29.68,0.4945,-0.9263,9.7544,0.0319,0.0312,0.0277
29.7,0.7,-0.954,9.4999,0.157,0.0328,0.0158
29.72,0.6905,-0.9589,9.5379,0.1297,0.0711,0.0485
29.74,0.3643,-1.1346,9.1591,0.1446,0.0582,-0.0136
29.76,0.7181,-1.1077,9.1994,0.0624,0.0155,-0.0697
29.78,0.4735,-1.1616,8.8457,-0.1007,-0.0858,-0.1049
29.8,0.15,-0.9481,9.0675,-0.3642,-0.2354,-0.1913
29.82,-0.0279,-0.7257,9.1074,-0.4669,-0.2011,-0.2157
29.84,-0.6717,-0.7576,9.3015,-0.5941,-0.075,-0.252
29.86,0.164,-0.4413,11.3275,-0.3547,0.1956,-0.1562
29.88,0.1317,-0.709,11.9361,-0.1,0.2995,-0.0315
29.9,1.0981,-0.2538,12.1847,0.2564,0.2107,0.1172
29.92,1.4226,-0.769,10.1132,0.5125,0.0188,0.2038
29.94,1.0928,-0.7081,8.9595,0.5486,-0.1113,0.2367
29.96,0.9915,-0.7595,8.7358,0.3818,-0.2324,0.2097
29.98,0.606,-1.2499,9.1207,0.2072,-0.1241,0.1774
30.0,0.6989,-0.9166,9.4572,0.0361,0.0305,0.1488
30.02,0.3263,-0.9312,9.3992,-0.1307,0.0805,0.0348
30.04,0.7221,-1.1298,9.6282,-0.1432,0.0874,0.001
30.06,0.4749,-1.0054,9.7508,-0.1098,0.0513,-0.069
30.08,0.5325,-0.8516,9.8343,-0.0642,0.018,-0.0407
30.1,0.455,-0.8236,10.0976,-0.0783,0.0083,-0.0362
30.12,0.4094,-0.8703,10.0462,-0.0,0.0145,0.0028
30.14,0.707,-0.7786,9.9024,-0.0186,0.0073,0.0119
30.16,0.6462,-0.901,9.7453,-0.0132,-0.0227,-0.0017
30.18,0.431,-1.0315,9.7479,-0.0095,0.0101,0.0216
30.2,0.899,-0.6438,9.941,0.016,-0.0051,-0.0145
30.22,0.6406,-0.9882,9.9178,0.0381,0.0295,-0.0152
30.24,0.744,-0.8858,9.8816,0.0427,-0.0406,-0.047
30.26,0.6652,-0.8815,9.5821,0.0994,0.0539,-0.0482
30.28,0.8057,-0.6438,9.5402,0.1603,0.0649,-0.052
30.3,0.5434,-0.6674,9.1922,0.1523,0.0895,0.0067
30.32,0.7753,-0.7757,9.0833,0.0399,-0.0093,0.086
30.34,0.4296,-0.7572,8.8585,-0.181,-0.1419,0.1531
30.36,0.6158,-0.902,9.0064,-0.4064,-0.2077,0.244
30.38,-0.2039,-1.0335,8.8448,-0.6115,-0.2527,0.2883
30.4,-0.1876,-1.0869,9.7957,-0.6158,-0.0643,0.2357
30.42,-0.37,-1.1349,11.1532,-0.4541,0.1603,0.1356
30.44,0.9478,-1.0995,13.3604,-0.0581,0.3599,0.0432
30.46,1.137,-1.4224,12.1593,0.2972,0.3038,-0.1225
30.48,1.7397,-0.7698,10.7445,0.5849,0.0862,-0.2045
30.5,1.398,-0.9773,8.9412,0.6121,-0.182,-0.2899
30.52,0.976,-0.7321,8.9339,0.4649,-0.2432,-0.2776
30.54,0.7179,-0.5548,8.9445,0.2424,-0.1518,-0.1961
30.56,0.759,-0.5868,9.2446,-0.0017,-0.0166,-0.1019
30.58,0.7176,-0.591,9.189,-0.1257,0.0591,-0.0482
30.6,0.6015,-0.864,9.4859,-0.2161,0.0912,-0.0007
30.62,0.5953,-1.0836,9.6206,-0.1331,0.0549,0.0519
30.64,0.5998,-0.8942,9.9965,-0.0535,0.0061,0.0726
30.66,0.3948,-1.2474,9.7572,-0.0615,-0.0361,0.0271
30.68,1.1904,-0.7051,10.5235,-0.0179,-0.0179,0.07
30.7,0.359,-0.689,10.0882,-0.0138,-0.0067,0.0013
30.72,0.615,-0.7029,9.9965,0.0108,-0.0432,0.0251
30.74,0.8428,-0.9755,9.7124,0.0553,-0.0066,0.0156
30.76,0.7776,-0.7976,9.7723,0.1129,0.0848,0.0286
30.78,0.7395,-0.7265,9.4928,0.1613,0.083,0.0355
30.8,0.5972,-0.8945,9.3935,0.1852,0.0974,-0.01
30.82,0.7532,-0.9732,9.3284,0.0519,0.0402,-0.0957
30.84,0.698,-1.0412,9.2019,-0.21,-0.1192,-0.1847
30.86,0.1438,-0.7533,9.0143,-0.4754,-0.2546,-0.2277
30.88,-0.152,-0.6839,8.9147,-0.6423,-0.249,-0.3098
30.9,-0.3811,-0.4479,9.7359,-0.6306,-0.053,-0.2564
30.92,-0.0426,-0.2626,11.8584,-0.3932,0.2502,-0.1409
30.94,0.2772,-0.3622,12.6029,-0.0414,0.3443,0.0203
30.96,1.1348,-0.6462,12.0908,0.3186,0.2688,0.0958
30.98,1.7053,-0.2437,10.5552,0.6259,0.0469,0.2597
31.0,1.3466,-0.6012,9.2146,0.6553,-0.1741,0.2809
31.02,0.9013,-0.8726,9.1364,0.505,-0.2228,0.2597
31.04,0.7772,-1.1904,8.9045,0.2008,-0.123,0.1777
31.06,0.5752,-1.0984,8.8766,-0.0179,-0.0066,0.1131
31.08,0.7703,-1.1251,9.231,-0.1439,0.076,0.0193
31.1,0.4055,-1.0274,9.2833,-0.2,0.0676,-0.0309
31.12,0.5917,-0.8463,9.8124,-0.1264,0.0859,-0.0109
31.14,0.0954,-0.7637,9.589,-0.1214,-0.0081,-0.0591
31.16,0.6774,-0.8698,9.9838,-0.0314,-0.0239,-0.0263
31.18,0.5439,-0.9452,9.6891,-0.01,-0.0364,-0.0071
31.2,0.5179,-0.9457,9.6155,-0.0069,-0.011,0.0009
31.22,0.5612,-0.8095,9.7611,-0.0189,0.0026,-0.0212
31.24,0.6503,-0.8262,9.7261,0.0223,-0.001,0.0309
31.26,0.5088,-1.0063,9.5824,-0.0376,-0.0238,0.006
31.28,0.2295,-0.9863,9.7384,-0.0371,-0.0694,-0.0348
31.3,0.8837,-0.7482,9.9183,0.0266,-0.0189,-0.0345
31.32,0.4889,-0.7019,10.0759,0.0761,-0.0171,-0.0409
31.34,0.6417,-1.0039,9.5776,0.0995,0.049,-0.053
31.36,0.6972,-0.734,9.5005,0.1809,0.0931,-0.0538
31.38,0.3633,-1.1618,8.7973,0.1019,0.051,-0.0245
31.4,0.7881,-0.5046,9.3536,0.1027,0.0487,0.0573
31.42,0.5696,-0.507,9.0481,-0.1478,-0.0825,0.1919
31.44,0.0951,-1.002,8.7201,-0.4232,-0.2667,0.2463
31.46,-0.1713,-0.8231,8.6116,-0.6551,-0.254,0.2834
31.48,-0.364,-1.1133,9.2578,-0.7157,-0.1234,0.2928
31.5,-0.4438,-1.1378,11.2032,-0.566,0.1698,0.1702
31.52,0.028,-1.5674,12.7845,-0.1382,0.3548,0.0315
31.54,1.1369,-1.2569,12.3891,0.3101,0.3114,-0.0734
31.56,1.5441,-1.1542,10.8582,0.6114,0.0708,-0.2563
31.58,1.4079,-1.0947,8.8609,0.6838,-0.1936,-0.3311
31.6,1.0434,-0.7971,8.7408,0.5449,-0.2912,-0.2521
31.62,0.7352,-0.8966,8.8817,0.3438,-0.1795,-0.2199
31.64,0.4859,-0.9153,8.8576,0.0286,-0.0451,-0.1303
31.66,0.4585,-0.6993,9.2052,-0.1401,0.0714,-0.0547
31.68,0.5706,-0.7871,9.43,-0.1827,0.0871,-0.0167
31.7,0.5179,-0.729,9.3905,-0.1417,0.0613,0.0339
31.72,0.3059,-0.9422,9.4868,-0.1489,-0.0307,-0.0113
31.74,0.5632,-0.8242,9.6638,-0.0892,-0.054,0.025
31.76,0.4627,-1.3237,9.828,-0.0097,-0.0114,0.0562
31.78,0.6538,-0.6463,9.7854,0.0134,0.0129,0.035
31.8,0.4429,-1.1152,9.6487,-0.0286,-0.0401,-0.0068
31.82,0.5972,-1.0624,9.6519,-0.0117,0.021,0.0084
31.84,0.5159,-0.8532,9.5582,-0.0402,-0.0194,0.03
31.86,0.7753,-0.5553,9.9036,0.0257,-0.0019,0.0344
31.88,0.7839,-0.9432,9.6845,0.0153,-0.0374,0.0181
31.9,0.5428,-0.8284,9.5325,0.0818,-0.0078,0.0304
31.92,0.5921,-0.884,9.7045,0.1007,0.0373,0.0214
31.94,0.5469,-1.0785,9.2376,0.1256,0.0866,-0.0355
31.96,0.6957,-0.9823,9.4392,0.084,0.0912,-0.0043
31.98,0.163,-1.1937,8.758,-0.1274,-0.0926,-0.174
32.0,0.4783,-0.9278,9.0042,-0.3215,-0.1579,-0.1874
32.02,0.0789,-0.7552,9.0533,-0.5105,-0.1812,-0.2608
32.04,-0.4227,-0.7265,9.3028,-0.5737,-0.1009,-0.2467
32.06,-0.3611,-0.557,10.523,-0.4185,0.1659,-0.1683
32.08,0.0959,-0.5012,12.1343,-0.1396,0.2453,-0.0311
32.1,1.108,-0.4578,12.1674,0.1648,0.2721,0.0522
32.12,1.1805,-0.7289,10.5745,0.4488,0.0691,0.184
32.14,1.3972,-0.7889,9.5806,0.6091,-0.0966,0.2404
32.16,0.8571,-0.8844,8.9736,0.4971,-0.2111,0.2242
32.18,0.75,-0.9621,9.0797,0.2737,-0.1915,0.1939
32.2,0.5634,-1.1658,9.1232,0.0598,-0.0515,0.0842
32.22,0.6074,-0.9138,9.3369,-0.0481,0.0645,0.0683
32.24,0.4409,-1.0758,9.2295,-0.1709,0.0532,-0.0123
32.26,0.2121,-0.8928,9.5133,-0.1648,0.0285,-0.0244
32.28,0.3093,-1.164,9.749,-0.0593,-0.0043,-0.0462
32.3,0.4129,-0.8694,9.7644,-0.0628,0.0161,-0.005
32.32,0.6107,-0.6151,9.9407,0.0042,-0.0271,0.0077
32.34,0.8266,-1.0314,9.7306,-0.026,0.0082,-0.0199
32.36,0.483,-0.8962,9.403,0.0041,0.01,-0.031
32.38,0.6451,-0.6565,9.9787,0.0401,0.02,-0.0042
32.4,0.697,-0.743,9.8929,-0.011,-0.007,0.0129
32.42,0.6678,-0.9778,9.7901,0.0204,0.0023,-0.0107
32.44,0.7427,-0.6348,10.2715,0.0005,0.0169,0.0072
32.46,0.593,-1.1524,9.794,-0.0139,-0.0301,-0.0439
32.48,0.9204,-0.7129,9.7985,0.1503,0.0296,-0.0672
32.5,1.1016,-0.7645,9.6831,0.1167,0.0552,-0.1002
32.52,1.037,-0.4938,9.731,0.1974,0.0992,0.0106
32.54,0.7281,-0.9502,9.3107,0.1723,0.0811,0.0137
32.56,0.7057,-0.7339,9.3753,0.0501,0.0422,0.1287
32.58,0.6041,-0.7638,8.7918,-0.2092,-0.1236,0.1783
32.6,0.06,-0.7702,8.8333,-0.4862,-0.2274,0.2574
32.62,-0.0392,-0.6867,8.9583,-0.6193,-0.2199,0.3318
32.64,-0.5494,-1.2722,9.6819,-0.6895,-0.0754,0.2831
32.66,0.0639,-1.1284,11.789,-0.4161,0.2301,0.1864
32.68,0.6488,-0.9657,13.0266,-0.0619,0.3432,0.0107
32.7,1.3954,-1.0559,12.1977,0.4125,0.2911,-0.1255
32.72,1.8293,-0.9837,10.2418,0.6018,-0.0013,-0.2619
32.74,1.7076,-0.6792,9.2607,0.7142,-0.1704,-0.2911
32.76,1.0792,-1.0593,8.7893,0.5089,-0.2889,-0.241
32.78,0.6315,-0.7693,8.9019,0.2642,-0.1593,-0.2138
32.8,1.1238,-0.506,9.7723,0.0345,0.0519,-0.0559
32.82,0.4543,-0.8032,9.2088,-0.1907,0.0588,-0.0897
32.84,-0.0489,-1.025,9.0851,-0.2469,0.0807,-0.0181
32.86,0.2478,-0.8826,9.4405,-0.144,0.0021,0.0381
32.88,0.2801,-1.0187,9.6512,-0.1397,-0.0584,0.032
32.9,0.9642,-0.6507,10.0438,-0.007,-0.0352,0.0319
32.92,0.4811,-0.8771,9.9289,-0.0354,-0.0371,0.0395
32.94,1.2814,-0.5809,10.3199,0.0491,-0.0232,-0.018
32.96,0.7604,-0.7273,9.9157,0.03,0.0263,0.0124
32.98,1.2841,-0.3006,10.453,0.0526,0.014,0.0245
33.0,0.6409,-0.7664,9.6276,0.0035,-0.0057,0.0194
33.02,0.9021,-0.7701,9.9482,0.0159,-0.0017,0.0165
33.04,0.7097,-0.8288,10.0949,0.0887,-0.004,0.0493
33.06,0.5231,-0.9453,9.5637,0.0854,-0.0024,0.0425
33.08,0.9189,-0.6884,9.8649,0.1923,0.0839,0.0771
33.1,0.9682,-0.6348,9.5652,0.2319,0.0716,0.0095
33.12,0.1228,-1.2563,8.8682,0.0522,0.047,-0.0727
33.14,0.5615,-0.9114,9.1034,-0.0565,-0.0474,-0.0816
33.16,0.4896,-0.8903,9.1079,-0.3036,-0.1712,-0.2304
33.18,0.2673,-0.7562,9.1376,-0.5661,-0.2623,-0.2833
33.2,-0.3944,-0.7288,9.3513,-0.6826,-0.1843,-0.2813
33.22,-0.1005,-0.5784,10.9524,-0.5367,0.0748,-0.1828
33.24,0.0284,-0.6473,12.2024,-0.2159,0.3276,-0.0692
33.26,1.1359,-0.371,12.8369,0.1555,0.3071,0.0528
33.28,1.2453,-0.465,10.9603,0.5031,0.1681,0.1954
33.3,1.8258,-0.5498,9.7391,0.7162,-0.0756,0.2597
33.32,1.2864,-0.9205,8.7769,0.573,-0.2705,0.2624
33.34,1.0276,-0.9342,9.0416,0.3814,-0.2093,0.2068
33.36,0.8337,-0.9304,9.0276,0.116,-0.0855,0.1408
33.38,0.4652,-1.09,9.1392,-0.0828,0.0474,0.0642
33.4,0.5618,-1.1893,9.3852,-0.1156,0.1165,0.015
33.42,0.4286,-0.8578,9.5932,-0.1644,0.0707,-0.0336
33.44,0.3845,-0.841,9.8095,-0.0998,0.0173,-0.0727
33.46,0.4937,-0.567,9.965,0.0044,-0.0115,-0.0296
33.48,0.4859,-1.0753,9.9447,-0.0226,0.014,0.0057
33.5,0.603,-0.8727,9.8102,-0.0065,0.0049,-0.0142
33.52,0.5329,-0.8901,9.6601,-0.0384,-0.014,-0.0513
33.54,0.7544,-0.6488,9.7768,0.0096,-0.0323,-0.0188
33.56,0.5838,-1.0656,9.8764,0.0018,0.0037,0.034
33.58,0.7284,-0.8703,9.9735,0.0238,0.0367,-0.0095
33.6,0.6611,-1.0356,9.8734,-0.0249,-0.0349,-0.0526
33.62,0.589,-0.9843,9.909,0.0054,-0.0195,-0.0368
33.64,0.541,-0.8871,9.5535,0.1094,-0.0232,-0.0647
33.66,0.6136,-0.8585,9.4861,0.137,0.0346,-0.0595
33.68,0.8235,-0.9592,9.1822,0.1361,0.0572,-0.0318
33.7,0.5687,-0.6209,9.3825,0.0914,0.0728,0.0388
33.72,0.6255,-0.4267,9.4038,-0.0669,-0.0277,0.1162
33.74,0.3925,-0.912,8.9814,-0.3033,-0.1856,0.1741
33.76,0.0684,-0.7193,9.0639,-0.512,-0.253,0.2125
33.78,-0.2052,-1.1224,9.3344,-0.5885,-0.1201,0.2635
33.8,-0.1256,-0.8263,10.7993,-0.4622,0.0655,0.1641
33.82,-0.1986,-1.2464,11.6918,-0.2135,0.2394,0.0456
33.84,0.7185,-1.2353,12.3167,0.1411,0.2562,-0.0996
33.86,1.2427,-1.2787,10.5281,0.4564,0.1,-0.1857
33.88,1.4978,-1.1341,9.4649,0.5664,-0.1156,-0.2508
33.9,1.1095,-0.9124,8.9272,0.4808,-0.1957,-0.2286
33.92,0.9614,-0.7606,9.1966,0.3613,-0.1804,-0.1862
33.94,0.4444,-0.7279,9.1152,0.0987,-0.0573,-0.1227
33.96,0.744,-0.7727,9.2486,-0.0957,0.0677,-0.0396
33.98,0.4563,-0.7779,9.1622,-0.1705,0.0605,0.0137
34.0,0.4274,-0.7943,9.4895,-0.1326,0.0376,0.0012
34.02,0.2727,-1.0034,9.4669,-0.1321,-0.0449,-0.0048
34.04,0.4891,-1.0386,9.906,-0.0326,-0.0123,-0.0069
34.06,0.2737,-1.091,9.5396,-0.0016,-0.0066,0.0138
34.08,0.5502,-0.8896,9.9918,0.0247,-0.0043,0.0516
34.1,0.4063,-0.9734,9.4458,-0.0357,-0.0263,-0.0228
34.12,0.3927,-1.0484,9.5867,0.0107,-0.0291,0.0181
34.14,0.7539,-0.8991,9.8461,0.0037,-0.0155,0.0408
34.16,0.7748,-0.6075,9.7955,0.0087,0.0194,0.0479
34.18,0.6153,-0.8166,9.8461,0.0186,0.0034,0.0555
34.2,0.6685,-1.0427,9.7878,0.0549,-0.0292,0.0473
34.22,0.6179,-0.8242,9.6262,0.1146,0.0165,0.0312
34.24,0.9287,-0.979,9.5433,0.1893,0.065,0.0301
34.26,0.8356,-0.9952,9.3454,0.1057,0.0834,-0.0004
34.28,0.5404,-1.1842,9.1412,0.0441,0.0012,-0.0612
34.3,0.545,-1.0584,9.0507,-0.1118,-0.0577,-0.1219
34.32,0.4728,-0.7121,9.2695,-0.3548,-0.1601,-0.2235
34.34,-0.0607,-0.8845,8.9585,-0.5734,-0.262,-0.2937
34.36,-0.3928,-0.8798,9.5254,-0.6395,-0.0984,-0.2558
34.38,-0.0147,-0.7135,11.1703,-0.4442,0.1573,-0.1629
34.4,0.4166,-0.5244,12.1209,-0.064,0.3388,-0.0266
34.42,1.6079,-0.1301,12.1699,0.2773,0.2874,0.0905
34.44,1.5097,-0.4,10.3584,0.5838,0.0807,0.2055
34.46,1.1577,-0.9364,9.2298,0.6254,-0.1539,0.2382
34.48,0.8669,-1.0048,8.9526,0.5037,-0.2105,0.2413
34.5,0.8224,-0.7899,9.1578,0.2798,-0.1629,0.2088
34.52,0.6143,-0.7328,9.1444,0.0636,-0.0024,0.084
34.54,0.5015,-1.0752,9.1408,-0.134,0.0334,0.028
34.56,0.644,-1.0803,9.4372,-0.1603,0.0915,-0.023
34.58,0.5512,-0.9512,9.6565,-0.1375,0.0463,-0.0375
34.6,0.6527,-1.0349,9.8846,-0.073,-0.0218,-0.0175
34.62,0.4867,-0.6108,9.9057,-0.0194,-0.009,-0.0055
34.64,0.4736,-1.1227,9.7464,-0.0271,-0.0472,-0.0357
34.66,0.3684,-0.7824,9.693,0.012,-0.0156,0.024
34.68,0.3457,-0.7995,9.6906,-0.0141,0.0156,-0.033
34.7,0.6608,-0.7717,9.7966,0.0424,-0.0169,-0.0051
34.72,0.6273,-0.6074,10.1739,-0.0024,-0.0108,-0.0235
34.74,0.4144,-0.9899,9.7782,0.0109,-0.0152,-0.0623
34.76,0.4822,-0.698,9.882,0.039,-0.0463,-0.0064
34.78,0.6352,-0.6463,9.8316,0.0957,0.0629,-0.0569
34.8,0.7019,-0.7905,9.4545,0.1198,0.0369,-0.0604
34.82,0.6567,-0.8273,9.3817,0.1668,0.0851,0.0326
34.84,0.4269,-0.5531,8.9882,0.0709,0.043,0.0471
34.86,0.6365,-0.4827,9.0611,-0.1349,-0.0617,0.1257
34.88,0.5061,-0.6444,9.0926,-0.3585,-0.2001,0.1893
34.9,0.1339,-0.9827,8.9628,-0.5082,-0.2062,0.2352
34.92,0.0205,-1.0729,9.693,-0.5677,-0.0814,0.2565
34.94,-0.0533,-1.2007,11.0992,-0.4172,0.1777,0.1566
34.96,0.7971,-0.895,12.7025,-0.0952,0.2773,0.0683
34.98,0.7639,-1.1396,11.8945,0.2639,0.2738,-0.0896
35.0,1.3861,-1.0737,10.4238,0.5229,0.036,-0.167
35.02,1.3761,-1.1495,9.3408,0.5996,-0.1698,-0.2429
35.04,1.1665,-0.8731,9.2624,0.4536,-0.2178,-0.2163
35.06,0.918,-0.5338,9.4368,0.2401,-0.1138,-0.1406
35.08,0.757,-0.4453,9.1838,0.0782,-0.0319,-0.0754
35.1,0.4506,-0.7806,9.2653,-0.0799,0.0533,-0.0362
35.12,0.6742,-0.7074,9.7119,-0.1463,0.0806,0.0172
35.14,0.8027,-0.5883,9.8693,-0.1062,0.0755,0.0657
35.16,0.8186,-0.68,9.99,-0.0834,0.0112,0.0457
35.18,0.696,-1.0105,10.0296,-0.0379,-0.0324,0.0072
35.2,0.5952,-0.7533,9.9486,0.0308,0.0085,0.0276
35.22,0.994,-0.7413,10.2634,0.0664,0.0329,0.0041
35.24,0.6991,-0.9005,9.9028,0.0336,0.01,-0.0076
35.26,0.6549,-0.8171,9.8427,-0.0119,-0.0034,-0.0048
35.28,0.62,-0.8898,9.7306,-0.0199,-0.0562,-0.0122
35.3,0.5665,-0.628,9.5595,-0.0322,-0.024,0.0248
35.32,0.6894,-0.7355,9.9436,-0.0124,-0.0478,0.0071
35.34,0.6761,-0.9245,9.8643,0.0652,-0.0241,0.0228
35.36,0.6785,-0.9552,9.9558,0.0793,-0.0134,0.0186
35.38,1.0377,-0.8945,9.6338,0.1425,0.067,0.0521
35.4,1.0234,-0.8584,9.6101,0.1495,0.0689,0.0192
35.42,0.8579,-1.1634,9.5202,0.1205,0.1066,-0.0171
35.44,0.6576,-1.0372,9.2833,-0.0233,-0.0334,-0.1088
35.46,0.6059,-0.8979,9.268,-0.2286,-0.1695,-0.2029
35.48,0.2335,-1.0487,8.8432,-0.513,-0.2379,-0.2705
35.5,-0.2117,-0.5814,9.3041,-0.6542,-0.1749,-0.2759
35.52,-0.3625,-0.5539,10.3269,-0.5583,0.0584,-0.2497
35.54,0.0228,-0.5264,12.052,-0.3417,0.2528,-0.1282
35.56,1.0295,-0.0918,12.808,0.09,0.2786,0.0187
35.58,1.3011,-0.7969,11.3393,0.4537,0.1957,0.1639
35.6,1.5252,-0.6501,9.8576,0.6349,-0.0255,0.2789
35.62,1.5192,-0.6473,9.2698,0.607,-0.2044,0.2652
35.64,0.9359,-0.7644,9.0719,0.4116,-0.1987,0.2288
35.66,0.9773,-0.8919,9.2449,0.1305,-0.1269,0.1446
35.68,0.8023,-0.8082,9.4749,0.0009,0.0248,0.07
35.7,0.5977,-0.5753,9.3682,-0.1635,0.0794,0.0251
35.72,0.833,-0.9044,9.7181,-0.1152,0.0877,-0.0169
35.74,0.6846,-0.751,9.4568,-0.1458,0.0031,-0.0545
35.76,0.437,-0.7683,9.843,-0.0873,-0.0211,-0.0614
35.78,0.7436,-0.7731,9.953,-0.0117,-0.0261,-0.0041
35.8,0.7774,-0.8475,10.1013,0.0542,0.0375,-0.0077
35.82,0.7269,-0.8658,9.7498,-0.0215,-0.0236,0.0008
35.84,0.6218,-0.7278,9.6614,-0.0016,0.0129,0.0093
35.86,0.7408,-0.925,10.1271,0.0118,0.0092,0.0147
35.88,0.6492,-0.9644,9.8932,0.0156,-0.0292,-0.0565
35.9,0.6749,-0.6751,9.886,0.0639,-0.0059,-0.0054
35.92,0.6987,-0.8077,9.6222,0.0881,-0.0089,-0.033
35.94,0.6127,-0.7342,9.6436,0.1259,0.043,-0.0224
35.96,0.6025,-0.7769,9.3331,0.1127,0.0532,-0.0026
35.98,0.6341,-0.6373,9.3053,0.0619,0.0174,0.0791
36.0,0.4918,-0.5871,9.3207,-0.1088,-0.0513,0.1479
36.02,0.227,-0.7979,9.0943,-0.3484,-0.2379,0.2098
36.04,-0.0825,-0.6575,9.2198,-0.5244,-0.2448,0.225
36.06,0.0936,-1.0534,9.5876,-0.5749,-0.0916,0.215
36.08,0.2346,-0.952,11.1582,-0.4304,0.1184,0.1471
36.1,0.6097,-1.1866,11.9679,-0.098,0.2681,0.0555
36.12,1.2545,-1.0836,12.0014,0.2806,0.295,-0.0858
36.14,1.2503,-1.1477,10.3041,0.4765,0.0669,-0.1899
36.16,1.2485,-0.8816,9.1859,0.5589,-0.1635,-0.2357
36.18,1.0458,-1.0894,9.1022,0.4807,-0.2267,-0.2241
36.2,0.6541,-0.6587,8.9071,0.2672,-0.1692,-0.1523
36.22,0.6501,-0.9231,8.9782,0.0663,-0.0577,-0.0686
36.24,0.7002,-0.8053,9.307,-0.1062,0.0835,0.0246
36.26,0.3061,-0.771,9.4002,-0.1404,0.0846,0.0361
36.28,0.2341,-0.8695,9.4987,-0.1463,0.0597,0.0676
36.3,0.6705,-0.6855,9.8541,-0.0506,0.0356,0.0553
36.32,0.3539,-1.1679,9.463,-0.0862,-0.0508,0.0075
36.34,0.5954,-0.6982,9.8613,-0.0113,-0.0224,0.0059
36.36,0.7615,-0.9073,9.7158,0.0452,-0.0241,0.0148
36.38,0.656,-0.6637,9.5283,0.037,-0.008,0.0083
36.4,0.4354,-1.0275,9.7101,0.011,-0.029,-0.006
36.42,0.5209,-0.9052,9.7983,0.0074,0.0059,0.0016
36.44,0.5274,-0.8739,9.75,-0.0276,-0.0333,0.0033
36.46,0.5148,-0.9362,9.9776,0.0363,-0.025,0.034
36.48,0.7786,-0.7767,9.8462,0.0436,-0.0248,0.0347
36.5,0.6148,-0.9606,9.6926,0.0894,-0.0083,0.0416
36.52,0.5508,-1.1519,9.2307,0.0921,0.0064,0.0216
36.54,0.6044,-1.1608,9.0283,0.1214,0.0269,0.007
36.56,0.5716,-1.1747,9.2814,0.1028,0.0393,-0.0433
36.58,0.6596,-1.0329,9.2107,-0.0495,-0.0332,-0.1464
36.6,0.3443,-1.1135,8.8095,-0.3149,-0.2003,-0.1772
36.62,0.0912,-1.0862,8.5938,-0.5373,-0.2721,-0.2647
36.64,-0.4833,-1.1554,9.1016,-0.6047,-0.1249,-0.2641
36.66,0.0607,-0.4109,10.7239,-0.4662,0.0889,-0.1887
36.68,0.471,-0.5565,11.7969,-0.1951,0.2815,-0.0926
36.7,0.4734,-0.8351,11.7453,0.1281,0.2556,0.0284
36.72,1.4526,-0.3887,11.0442,0.4763,0.1052,0.2005
36.74,1.43,-0.6508,9.2269,0.5956,-0.1406,0.2
36.76,1.3991,-0.5679,8.8541,0.5365,-0.2661,0.2368
36.78,0.5171,-1.2282,8.8985,0.32,-0.2068,0.1961
36.8,0.9018,-1.163,9.1847,0.1027,-0.0283,0.1315
36.82,0.5413,-0.7671,9.3342,-0.0467,-0.0157,0.0379
36.84,0.4907,-1.0474,9.4701,-0.1988,0.0463,0.0207
36.86,0.7111,-0.8604,9.6848,-0.1324,0.0454,0.0005
36.88,0.532,-1.1256,9.485,-0.1238,-0.0223,-0.067
36.9,0.3831,-1.0537,9.8256,-0.0187,-0.0254,-0.0309
36.92,0.8387,-0.6578,10.124,0.0466,0.0246,0.0058
36.94,0.7234,-0.7604,9.9384,0.0167,0.0154,0.0128
36.96,0.4525,-0.7647,9.6929,-0.0026,-0.001,-0.0216
36.98,0.6148,-0.6324,9.9808,-0.0068,0.003,-0.0461
37.0,0.5554,-0.7306,9.7078,-0.0329,-0.041,-0.0053
37.02,0.644,-0.763,9.9597,0.0557,-0.0217,-0.0186
37.04,0.8487,-0.6993,9.9671,0.0639,-0.0219,-0.0263
37.06,0.7456,-0.8435,9.499,0.1044,0.0308,-0.0171
37.08,0.8329,-0.798,9.6327,0.1982,0.09,-0.0467
37.1,0.7807,-0.6071,9.2338,0.1367,0.0833,0.0188
37.12,0.9187,-0.308,9.2256,0.0141,0.0284,0.1225
37.14,0.5374,-0.4962,9.0436,-0.2323,-0.1682,0.1529
37.16,0.2733,-0.7063,9.1688,-0.4517,-0.2274,0.2621
37.18,0.0936,-0.7389,9.2786,-0.5759,-0.1891,0.2601
37.2,0.0513,-1.171,10.5875,-0.5729,0.0319,0.2243
37.22,-0.2259,-1.2996,11.6875,-0.3057,0.2268,0.0979
37.24,0.7793,-1.1467,12.4609,0.0886,0.346,-0.0179
37.26,1.3369,-0.9919,11.511,0.428,0.1712,-0.1585
37.28,1.5458,-1.0867,9.903,0.662,-0.0527,-0.2483
37.3,1.3853,-1.0229,9.1455,0.5691,-0.2009,-0.2785
37.32,1.0882,-0.4462,9.2952,0.4142,-0.2062,-0.223
37.34,0.5464,-0.689,9.134,0.1763,-0.1001,-0.1673
37.36,0.7967,-0.6444,9.1369,-0.0705,0.0315,-0.0401
37.38,0.5247,-0.5219,9.5274,-0.1548,0.0998,-0.0008
37.4,0.4736,-0.7568,9.7339,-0.182,0.0496,0.0307
37.42,0.6251,-0.4503,9.8021,-0.091,0.0056,0.0438
37.44,0.5227,-0.8761,9.8213,-0.053,-0.0541,0.03
37.46,0.7206,-0.7035,10.2614,-0.0101,0.0014,0.0134
37.48,1.1501,-0.6616,9.9679,0.0554,0.0287,0.0097
37.5,0.8763,-0.5718,10.1889,-0.0008,-0.0195,0.017
37.52,1.1148,-0.7444,10.01,0.0249,0.0291,0.0476
37.54,0.8322,-0.2632,10.1993,0.0077,-0.0252,0.0384
37.56,0.8542,-0.676,10.3419,0.0349,0.0167,0.0108
37.58,0.9024,-0.7805,10.0707,0.0703,-0.01,0.0108
37.6,0.8395,-0.5624,9.8561,0.0849,0.0274,0.0045
37.62,0.9689,-0.8193,9.8168,0.1308,0.0587,0.0584
37.64,0.888,-0.8456,9.7433,0.1843,0.091,0.0153
37.66,0.7895,-0.9349,9.4811,0.1131,0.0034,-0.024
37.68,0.7949,-0.7806,9.2792,-0.0702,-0.0569,-0.1166
37.7,0.606,-1.1004,9.0548,-0.2726,-0.1735,-0.1882
37.72,0.2078,-0.8119,8.9005,-0.5226,-0.2063,-0.2646
37.74,0.1169,-0.4594,9.5343,-0.5867,-0.1226,-0.2563
37.76,-0.0664,-0.6412,10.4946,-0.4958,0.0889,-0.2014
37.78,0.4739,-0.3276,12.4082,-0.2087,0.2877,-0.0764
37.8,1.0369,-0.0645,12.3608,0.1482,0.2923,0.0304
37.82,1.2837,-0.453,11.0578,0.4856,0.1118,0.1606
37.84,1.5763,-0.7176,9.5776,0.5747,-0.061,0.2596
37.86,1.1831,-0.6745,8.864,0.4888,-0.2001,0.2291
37.88,0.9713,-0.7773,9.1512,0.309,-0.2041,0.2038
37.9,0.8521,-1.0578,9.2774,0.1166,-0.0536,0.1234
37.92,0.7774,-0.6621,9.579,-0.0487,0.053,0.0554
37.94,0.7161,-0.7528,9.536,-0.1364,0.1,0.0097
37.96,0.6057,-0.9755,9.6783,-0.127,0.0579,-0.0125
37.98,0.3479,-0.9706,9.8302,-0.1162,-0.0477,-0.0457
38.0,0.4797,-0.7157,10.0951,-0.0537,-0.0175,-0.0018
38.02,0.3411,-0.8194,9.9203,-0.0036,-0.0761,0.0079
38.04,0.623,-0.5949,9.7452,0.021,-0.0033,-0.0282
38.06,0.6383,-0.7352,9.5321,0.0144,0.0012,0.0026
38.08,0.8966,-0.5839,10.1391,0.0258,-0.0081,-0.0143
38.1,0.7396,-1.0348,9.7888,-0.0038,-0.0527,0.0251
38.12,0.7292,-0.8837,9.9347,0.0189,-0.0165,0.0157
38.14,0.6865,-0.7292,10.025,0.0436,-0.0215,-0.038
38.16,0.8957,-0.8673,9.8281,0.1315,0.0303,-0.0292
38.18,0.8118,-0.5914,9.5055,0.1382,0.0436,-0.0231
38.2,0.6649,-0.7631,9.3981,0.1584,0.1076,0.0232
38.22,0.8585,-0.6467,9.3032,0.0629,0.016,0.044
38.24,0.7745,-0.81,9.2164,-0.1284,-0.0824,0.0862
38.26,0.3199,-0.9726,8.905,-0.319,-0.2248,0.1907
38.28,0.0448,-0.7579,8.9276,-0.4838,-0.1978,0.2319
38.3,-0.0182,-1.2809,9.6736,-0.5635,-0.0886,0.2486
38.32,0.3307,-0.9058,11.1117,-0.4152,0.1393,0.1532
38.34,0.0818,-1.3236,11.9684,-0.1189,0.2131,0.0503
38.36,1.4204,-0.8225,12.0379,0.2271,0.2571,-0.0703
38.38,1.4239,-1.3184,10.4926,0.4559,0.1078,-0.1948
38.4,1.492,-1.0112,9.2067,0.5795,-0.1455,-0.2591
38.42,0.9667,-0.8747,9.0221,0.4965,-0.1977,-0.2376
38.44,0.7504,-0.8601,9.1717,0.2453,-0.189,-0.1951
38.46,0.5189,-0.9275,8.9556,0.0451,-0.0854,-0.1196
38.48,0.7645,-0.8288,9.4647,-0.0583,0.0587,-0.0242
38.5,0.5159,-0.8812,9.6012,-0.1489,0.0672,0.0012
38.52,0.4983,-0.6055,9.6285,-0.1418,0.0852,0.0806
38.54,0.4676,-0.7073,9.6797,-0.0675,-0.004,0.0717
38.56,0.625,-0.9627,10.0002,-0.0244,-0.0209,0.0121
38.58,0.4638,-0.8779,9.8821,-0.001,-0.029,0.015
38.6,0.7692,-0.6809,9.8275,0.0332,-0.0093,-0.0029
38.62,0.5171,-0.9049,9.5477,0.022,0.0339,0.0056
38.64,0.5797,-1.1137,9.6454,-0.0207,-0.0495,-0.0196
38.66,0.4929,-0.8567,9.6675,-0.0075,0.0022,-0.019
38.68,0.9221,-0.6686,10.0582,0.0671,0.0528,0.0333
38.7,0.6252,-0.8457,9.5795,0.1144,0.0035,0.0527
38.72,0.6786,-0.5383,9.7172,0.1412,0.0476,0.0193
38.74,0.5538,-0.9861,9.4381,0.1567,0.1116,0.0225
38.76,0.5741,-1.0984,9.2153,0.1645,0.0941,-0.0225
38.78,0.2254,-0.9241,9.1619,-0.0289,-0.0293,-0.0986
38.8,0.5291,-0.9435,8.7762,-0.1984,-0.1331,-0.166
38.82,0.3146,-0.9252,8.7032,-0.4865,-0.2278,-0.2595
38.84,-0.0575,-0.8306,9.0595,-0.5704,-0.1744,-0.3013
38.86,-0.287,-0.4842,9.7417,-0.6185,-0.0769,-0.1917
38.88,-0.3119,-0.6395,11.3169,-0.3787,0.2137,-0.1584
38.9,0.5116,-0.4794,12.748,0.0118,0.3427,0.003
38.92,1.0624,-0.4419,11.6724,0.3933,0.196,0.151
38.94,1.0941,-0.8015,9.6727,0.5832,-0.0491,0.2288
38.96,1.2991,-0.8026,9.0341,0.5879,-0.2402,0.2699
38.98,1.255,-0.8688,8.9452,0.4611,-0.254,0.2611
39.0,0.8635,-0.9618,8.8617,0.2326,-0.1434,0.1995
39.02,0.6707,-1.259,9.1324,0.0086,-0.0166,0.1046
39.04,0.6831,-1.2228,9.2554,-0.1657,0.0698,0.0378
39.06,0.0698,-0.9526,9.2304,-0.1737,0.0147,-0.0593
39.08,0.011,-0.9157,9.4974,-0.1243,0.0232,-0.0654
39.1,0.3245,-0.743,9.5804,-0.0766,-0.0188,-0.0274
39.12,0.4084,-0.7562,9.7882,-0.0469,-0.0099,-0.0044
39.14,0.3894,-1.1546,9.3097,-0.1051,-0.0557,-0.0321
39.16,0.6753,-0.7712,10.186,0.0548,0.0171,-0.0376
39.18,0.5929,-0.8956,9.9984,0.0295,-0.0056,-0.0228
39.2,0.7581,-0.9027,9.7565,0.056,-0.0082,-0.0664
39.22,0.7217,-0.8485,9.688,0.1193,0.0385,-0.0687
39.24,0.8265,-0.7749,9.467,0.1756,0.032,-0.0249
39.26,1.0822,-0.5511,9.4054,0.1809,0.103,0.0311
39.28,0.6671,-0.6943,8.9706,0.1059,0.0444,0.04
39.3,0.5975,-0.8822,8.9869,-0.113,-0.0512,0.1152
39.32,0.4443,-0.8586,9.2034,-0.3031,-0.1728,0.2421
39.34,0.1379,-0.7858,8.8327,-0.5767,-0.2508,0.2615
39.36,-0.3116,-1.1419,9.2977,-0.6797,-0.1568,0.2703
39.38,-0.4715,-1.4441,10.9401,-0.5407,0.1209,0.1843
39.4,0.5437,-1.0315,12.9298,-0.1931,0.3547,0.0739
39.42,1.0316,-1.231,12.4114,0.2122,0.3226,-0.0867
39.44,1.719,-0.8636,11.4096,0.5348,0.1369,-0.1746
39.46,1.5046,-0.8585,9.4165,0.6723,-0.1551,-0.3025
39.48,1.5089,-0.7821,8.9268,0.6179,-0.2581,-0.274
39.5,0.5126,-0.7418,8.7934,0.2849,-0.2283,-0.2445
39.52,0.9353,-0.9277,9.1813,0.0846,-0.0422,-0.0725
39.54,0.6505,-0.7582,9.2696,-0.0594,0.0216,-0.0482
39.56,0.7483,-0.7718,9.4634,-0.1886,0.0952,-0.0071
39.58,0.7044,-0.7658,9.7219,-0.1162,0.0878,0.0344
39.6,0.5571,-0.6693,9.9364,-0.0845,0.0152,0.0521
39.62,0.5505,-0.7413,9.9517,-0.0327,-0.0395,0.0558
39.64,0.7038,-0.9061,10.292,-0.0224,-0.0218,0.0146
39.66,0.6442,-0.9345,9.6903,-0.048,-0.0774,-0.0214
39.68,0.7484,-0.9443,9.9696,-0.0181,-0.0062,0.0289
39.7,0.6981,-0.7197,9.9225,0.0268,-0.0247,0.0022
39.72,0.802,-0.6998,9.9291,0.0096,-0.0265,-0.0057
39.74,0.7758,-0.7457,10.3837,0.0234,-0.0529,0.0389
39.76,1.1695,-0.6032,9.6593,0.0908,-0.002,0.0168
39.78,0.8765,-1.0498,9.7019,0.1681,0.0692,0.0305
39.8,1.0422,-0.8483,9.4966,0.1825,0.1006,0.0244
39.82,0.5864,-0.9556,9.216,0.1169,0.0265,-0.0745
39.84,0.848,-0.7488,9.4609,0.005,-0.0022,-0.0759
39.86,0.6879,-0.8562,9.2495,-0.2275,-0.1966,-0.1712
39.88,-0.0465,-0.7954,8.9424,-0.5535,-0.2859,-0.2765
39.9,0.2504,-0.5028,9.5243,-0.6567,-0.1982,-0.2376
39.92,0.1457,-0.3322,10.4504,-0.555,0.0538,-0.2328
39.94,0.4463,-0.3634,11.6531,-0.2996,0.2824,-0.1273
39.96,0.8084,-0.5647,11.7473,0.0905,0.3311,0.045
39.98,1.6509,-0.1905,11.2764,0.4768,0.1733,0.1613
40.0,1.6436,-0.564,9.6326,0.6605,-0.0859,0.2609
40.02,1.4508,-0.749,9.397,0.6351,-0.2307,0.2682
40.04,0.6837,-0.9273,8.8797,0.3524,-0.261,0.219
40.06,0.699,-0.8839,8.9345,0.186,-0.0973,0.1531
40.08,0.7043,-1.0082,9.5153,-0.0524,0.0231,0.0383
40.1,0.4115,-0.7808,9.382,-0.1529,0.113,-0.0102
40.12,0.6059,-0.7715,9.6053,-0.1572,0.0574,-0.0659
40.14,0.7552,-0.8628,9.9328,-0.1075,0.0076,-0.0022
40.16,0.7269,-0.7011,10.0378,-0.009,-0.0205,-0.0384
40.18,0.7607,-0.8362,10.0553,-0.0085,-0.0135,-0.0465
40.2,0.6067,-0.8829,9.9205,-0.0308,0.0024,-0.0373
40.22,1.0872,-0.7882,9.9973,0.0119,0.0003,-0.0257
40.24,0.6155,-0.8286,10.153,0.0166,0.0147,0.0022
40.26,0.7965,-0.8137,10.1192,0.0384,-0.0168,-0.0156
40.28,0.8678,-0.7081,9.7386,0.0442,0.0009,-0.0287
40.3,0.7485,-0.7523,9.4818,0.1835,0.0266,-0.0272
40.32,0.958,-0.6783,9.3354,0.1841,0.0847,0.0191
40.34,0.9067,-0.8249,9.1323,0.0554,0.0221,0.0503
40.36,0.6545,-0.3062,9.0495,-0.0718,-0.0497,0.1471
40.38,0.3652,-0.8147,8.7284,-0.2521,-0.1771,0.1537
40.4,0.2634,-0.5871,8.8849,-0.4995,-0.2692,0.2313
40.42,0.0196,-0.8263,9.4981,-0.6037,-0.1427,0.2681
40.44,-0.0662,-1.2756,10.284,-0.5594,0.0738,0.201
40.46,0.6193,-0.7766,12.6816,-0.196,0.2898,0.117
40.48,1.1008,-0.9987,12.9061,0.1539,0.3353,-0.001
40.5,1.9069,-1.2987,11.169,0.4501,0.1239,-0.1995
40.52,1.7896,-0.9686,9.7381,0.618,-0.0481,-0.2567
40.54,1.599,-0.4779,9.339,0.5789,-0.2039,-0.257
40.56,0.9869,-0.413,9.2066,0.3664,-0.1857,-0.259
40.58,0.4247,-0.4725,8.8485,0.1077,-0.1188,-0.1259
40.6,0.4762,-0.7114,9.3662,-0.0605,0.0538,-0.0934
40.62,0.6587,-0.4577,9.4021,-0.1217,0.1097,0.0103
40.64,0.4471,-0.8467,9.5392,-0.1394,0.0665,0.0229
40.66,0.5389,-0.7759,9.7854,-0.1128,-0.0166,0.0565
40.68,0.7183,-0.5946,10.0471,-0.0421,0.0076,0.0184
40.7,0.52,-0.8903,9.7153,-0.0108,0.0176,0.0141
40.72,0.5292,-0.8254,9.8,-0.0071,-0.0097,0.0288
40.74,0.6162,-1.1361,9.6776,0.0051,0.0,0.0049
40.76,0.5269,-1.0801,9.4083,-0.0138,0.0036,-0.0213
40.78,0.7992,-0.8674,10.0355,0.0027,0.0127,0.0196
40.8,0.5308,-0.9785,9.9717,0.0281,-0.0314,-0.0439
40.82,0.8437,-0.8381,9.809,0.0157,-0.0057,-0.0071
40.84,0.8775,-0.8598,9.8772,0.1195,0.0315,0.059
40.86,0.7923,-0.6117,9.7714,0.1359,0.0248,0.0198
40.88,0.6906,-1.2809,9.2459,0.1151,0.0358,0.0371
40.9,0.7287,-1.0863,9.1061,0.0807,0.07,-0.0188
40.92,1.1155,-0.7087,9.8797,0.0498,0.0369,-0.0953
40.94,1.5898,-0.4717,10.1665,-0.0946,-0.053,-0.1666
40.96,0.8924,-0.6985,9.4298,-0.3695,-0.1789,-0.2055
40.98,0.2995,-0.7779,9.394,-0.5021,-0.1054,-0.2267
41.0,0.0965,-0.3483,10.6507,-0.4829,0.0277,-0.2294
41.02,0.0237,-0.6836,11.3532,-0.2533,0.2046,-0.1046
41.04,0.8671,-0.0872,12.831,0.071,0.3161,0.0082
41.06,1.8663,-0.1708,12.3814,0.4614,0.2585,0.1097
41.08,1.5299,-0.8656,9.5173,0.5138,-0.0423,0.2186
41.1,1.5991,-0.4497,9.454,0.5472,-0.1464,0.2237
41.12,1.3544,-0.6664,9.4952,0.3949,-0.1386,0.1756
41.14,0.926,-0.748,9.5787,0.1875,-0.0887,0.1451
41.16,0.4859,-1.1594,9.0552,-0.0357,0.0249,0.0604
41.18,0.5709,-1.1435,8.9521,-0.1679,0.0514,-0.0213
41.2,0.3162,-0.9907,9.2516,-0.1113,0.058,0.0078
41.22,0.5701,-0.7258,9.5145,-0.0703,0.0111,-0.0114
41.24,0.5903,-0.7649,10.0555,-0.0476,-0.0001,-0.0328
41.26,0.5779,-1.078,9.597,-0.0573,-0.0128,-0.041
41.28,0.568,-0.8323,9.4287,-0.0163,-0.0368,-0.0132
41.3,0.9157,-0.7514,9.7956,0.0139,-0.0642,-0.0226
41.32,0.4545,-0.9919,9.6616,0.0148,-0.0126,-0.0027
41.34,0.8895,-0.9543,9.6026,-0.0164,0.0126,0.0686
41.36,0.5221,-1.0827,9.722,-0.0094,-0.0286,-0.0228
41.38,0.7197,-0.8256,9.8554,-0.0213,-0.0324,-0.0209
41.4,0.5504,-0.8383,9.9899,0.06,-0.0046,-0.0572
41.42,0.6942,-0.9559,9.7172,0.0778,0.0377,-0.0106
41.44,0.8386,-0.6848,9.3913,0.1278,0.0459,-0.0228
41.46,0.446,-0.7644,9.0321,0.13,0.0902,-0.0068
41.48,0.5074,-0.9341,9.2989,0.0833,0.0257,0.0729
41.5,0.5111,-0.7226,8.9571,-0.0833,-0.0791,0.1536
41.52,0.0837,-1.0159,8.7462,-0.3592,-0.1854,0.1872
41.54,0.0638,-0.8361,8.9861,-0.4939,-0.2294,0.2468
41.56,-0.2112,-1.0459,9.5244,-0.5871,-0.1003,0.2271
41.58,-0.1283,-1.1264,11.4174,-0.3919,0.1233,0.211
41.6,0.3233,-1.3569,12.413,-0.0819,0.303,0.0842
41.62,1.0767,-1.546,12.0199,0.2221,0.2589,-0.0543
41.64,1.6925,-1.1688,10.7041,0.4762,0.06,-0.2035
41.66,1.4068,-1.3028,9.106,0.5594,-0.188,-0.253
41.68,1.2117,-0.821,9.0406,0.4836,-0.2092,-0.2526
41.7,0.5438,-0.7411,8.9074,0.3189,-0.1821,-0.1957
41.72,0.6959,-0.6786,9.2204,0.0447,-0.058,-0.1134
41.74,0.3407,-0.8044,9.197,-0.077,0.0391,-0.0105
41.76,0.4434,-0.4534,9.2738,-0.1609,0.1018,-0.0326
41.78,0.54,-0.7513,9.5899,-0.1198,0.0427,0.0233
41.8,0.7008,-0.3583,9.7069,-0.0433,0.0061,0.0613
41.82,0.1763,-0.9082,9.5991,-0.0491,-0.0493,0.0263
41.84,0.5694,-0.8094,9.8162,-0.0218,-0.0394,0.016
41.86,0.6603,-0.5943,9.6221,-0.0161,0.0093,0.0241
41.88,0.4597,-0.8726,9.7695,0.023,-0.0289,0.0148
41.9,0.6739,-1.0476,9.9861,0.0437,-0.0126,0.0118
41.92,0.4928,-0.8982,9.8078,0.0028,-0.0445,0.0306
41.94,0.855,-0.6549,9.8546,0.0636,0.0208,0.0151
41.96,0.6054,-1.0006,9.4343,0.1068,0.0066,0.0071
41.98,0.7901,-0.8066,9.5356,0.1588,0.0607,0.004
42.0,0.924,-1.0073,9.277,0.1418,0.1104,0.0053
42.02,0.8528,-0.7118,9.495,0.0534,-0.0115,-0.0404
42.04,0.4635,-0.9145,9.0174,-0.1562,-0.1283,-0.1565
42.06,0.335,-0.7025,8.9512,-0.4064,-0.1909,-0.239
42.08,0.1354,-0.9033,9.0656,-0.5341,-0.2172,-0.239
42.1,-0.281,-0.604,9.9297,-0.5896,-0.0219,-0.2515
42.12,0.0862,-0.4058,11.6399,-0.4028,0.1553,-0.1423
42.14,0.7162,-0.4009,12.7543,-0.0276,0.2936,-0.0057
42.16,1.7884,-0.4164,11.8099,0.3156,0.2101,0.1119
42.18,1.7168,-0.5314,10.2424,0.5487,-0.0059,0.2452
42.2,1.1567,-0.9865,9.0892,0.535,-0.2024,0.2299
42.22,1.1811,-0.8646,9.1419,0.4822,-0.2236,0.2417
42.24,1.0454,-0.7747,9.0339,0.2132,-0.1345,0.179
42.26,0.7561,-0.9066,9.1571,-0.0073,0.0096,0.1055
42.28,0.8702,-0.7838,9.5675,-0.1076,0.059,0.058
42.3,0.3224,-0.8614,9.6405,-0.1505,0.0564,-0.0175
42.32,0.3389,-0.8854,9.565,-0.1071,0.0266,-0.0551
42.34,0.7886,-0.9686,10.1856,-0.0219,0.021,-0.003
42.36,0.7703,-0.5551,10.1606,-0.0001,-0.0034,-0.0273
42.38,0.8323,-0.5681,10.1533,0.0346,0.0164,-0.0068
42.4,0.8585,-0.8198,9.9561,0.0063,-0.0022,0.0038
42.42,1.0387,-1.0957,9.9483,0.0268,-0.0262,-0.0166
42.44,1.0027,-0.7928,10.0376,0.0059,-0.0198,0.0084
42.46,0.8913,-0.8596,10.372,0.026,-0.0118,-0.0114
42.48,0.811,-1.0,9.955,0.0809,-0.016,-0.0361
42.5,1.033,-1.0874,9.596,0.1079,0.0097,-0.0193
42.52,0.8274,-0.7785,9.4923,0.1389,0.0642,-0.0056
42.54,0.8936,-0.5722,9.6431,0.1478,0.1097,-0.0042
42.56,0.8572,-0.7444,9.3485,0.0298,0.0686,0.0755
42.58,0.4417,-0.6912,9.2206,-0.141,-0.1014,0.1461
42.6,0.7775,-0.5375,9.3301,-0.3212,-0.1789,0.2354
42.62,0.1035,-0.7502,9.1631,-0.5404,-0.2018,0.2522
42.64,0.0065,-0.7898,9.8984,-0.5835,-0.0932,0.2512
42.66,0.4865,-0.9383,11.6878,-0.4227,0.1488,0.1927
42.68,0.3785,-1.2063,12.5581,-0.0771,0.342,0.0433
42.7,1.4646,-1.2865,12.66,0.3125,0.278,-0.1106
42.72,1.7145,-1.3151,10.5025,0.5119,0.0614,-0.1858
42.74,1.236,-0.9998,9.2098,0.5983,-0.1618,-0.2789
42.76,1.5303,-0.8134,9.1877,0.5089,-0.2314,-0.2578
42.78,0.6463,-0.6433,9.0474,0.2699,-0.2066,-0.183
42.8,0.8579,-0.9225,9.2435,0.0908,-0.01,-0.0726
42.82,0.4781,-0.5931,9.4066,-0.1034,0.1127,-0.0174
42.84,0.354,-0.8002,9.3864,-0.1617,0.0659,0.0005
42.86,0.4902,-0.8118,9.6559,-0.1347,0.0635,0.0359
42.88,0.6608,-0.8341,9.7674,-0.089,-0.0105,0.0251
42.9,0.6083,-1.0095,9.8139,-0.0263,-0.0018,0.0037
42.92,0.5905,-0.732,9.8975,0.013,-0.0205,-0.0009
42.94,0.3999,-0.919,9.736,-0.0064,0.0039,0.0086
42.96,0.5329,-0.729,9.6705,0.011,-0.004,0.004
42.98,0.6583,-0.8446,9.7897,0.0361,0.0118,0.0278
43.0,0.6453,-0.8162,9.5057,-0.0673,-0.0111,-0.0121
43.02,0.6136,-0.7881,9.7332,0.011,-0.0306,-0.0497
43.04,0.5804,-0.8859,9.5763,0.0242,0.0002,0.0012
43.06,0.7653,-0.9019,9.6889,-0.0214,-0.0121,0.0105
43.08,0.442,-0.8295,9.8228,0.0579,-0.0023,0.0076
43.1,0.7098,-0.8485,9.9666,-0.0095,-0.0005,-0.004
43.12,0.6743,-0.6532,9.9396,0.0381,0.0152,-0.0039
43.14,0.8447,-0.7054,9.8323,0.0622,-0.0204,0.0329
43.16,0.4764,-1.05,9.631,-0.0347,0.0069,0.0427
43.18,0.6298,-0.8928,9.687,-0.027,-0.0519,-0.044
43.2,0.7265,-0.6219,9.7533,0.017,-0.0109,-0.021
43.22,0.657,-0.8762,9.5486,0.0097,-0.0126,0.0099
43.24,0.7575,-0.8945,9.9608,0.0281,0.0257,-0.0047
43.26,0.5243,-0.9342,9.6688,-0.0073,-0.0201,-0.0259
43.28,0.5086,-0.7673,9.7363,-0.0242,0.0196,0.0165
43.3,0.8812,-0.8458,9.9905,0.0341,0.0254,0.0147
43.32,0.5648,-0.8644,9.4892,0.0094,-0.0147,-0.0268
43.34,0.5288,-0.8167,9.7053,0.0152,-0.026,0.0149
43.36,0.6799,-0.9256,9.8308,0.0188,0.0214,0.0275
43.38,0.6581,-1.0814,9.6864,0.0215,-0.0159,0.022
43.4,0.415,-0.8987,9.5244,0.0087,-0.0003,0.0042
43.42,0.8122,-0.7974,9.6255,-0.011,0.0257,-0.005
43.44,0.4579,-0.9534,9.7279,-0.0535,-0.0474,-0.006
43.46,0.6471,-0.7096,9.8073,0.0442,0.0343,0.0242
43.48,0.8505,-0.7847,9.9814,0.009,0.0089,-0.0056
43.5,0.6575,-0.8469,9.7019,0.0067,-0.0205,0.0215
43.52,0.4118,-0.6239,10.0009,0.0685,0.0372,0.0152
43.54,0.6542,-0.8138,9.6669,0.0201,0.0176,-0.0049
43.56,0.5964,-1.059,9.5439,-0.0172,-0.0172,-0.0212
43.58,0.653,-0.8961,9.5886,-0.0078,0.0093,-0.0057
43.6,0.6578,-0.7154,9.9247,0.0113,0.015,-0.0016
43.62,0.5533,-0.9173,9.6662,-0.0136,-0.0109,-0.0133
43.64,0.5786,-0.9253,9.803,-0.0002,-0.0207,-0.0149
43.66,0.4785,-0.9385,9.68,-0.0141,-0.002,-0.0067
43.68,0.6217,-0.7991,9.6888,-0.0031,-0.0086,0.0031
43.7,0.3858,-0.8387,9.6072,-0.0194,-0.0036,-0.0197
43.72,0.4488,-1.0447,9.5676,-0.0273,-0.017,-0.0281
43.74,0.4599,-1.0093,9.6199,-0.0239,-0.0235,-0.0327
43.76,0.6562,-0.8982,9.8174,0.0069,-0.0013,0.0056
43.78,0.5283,-0.8181,9.6386,0.0019,-0.0082,0.0018
43.8,0.6727,-0.9506,9.7348,-0.0036,0.0006,-0.0153
43.82,0.4382,-1.0209,9.6605,-0.0015,0.0022,-0.0132
43.84,0.5975,-0.7972,9.7138,0.0012,0.0159,0.0009
43.86,0.5268,-0.8904,9.7655,0.006,-0.0053,0.0033
43.88,0.8051,-0.8048,9.6975,0.0119,0.0083,-0.0018
43.9,0.7385,-0.8061,9.7871,0.0128,0.0144,0.0109
43.92,0.4108,-0.9736,9.6286,-0.0209,-0.0196,-0.0157
43.94,0.5668,-0.874,9.7717,0.0055,-0.0009,0.0007
43.96,0.5725,-0.9247,9.7087,-0.0079,-0.0041,-0.0011
43.98,0.6545,-0.9324,9.7253,-0.0098,-0.0027,-0.0113
44.0,0.6652,-0.7932,9.8162,0.0169,0.0096,-0.0009
44.02,0.7049,-0.8162,9.6788,0.0055,0.0043,0.0012
44.04,0.5616,-0.8626,9.7735,0.0179,0.0055,0.0079
44.06,0.6425,-0.8072,9.7934,-0.0027,-0.0024,0.0003
44.08,0.7914,-0.8388,9.8983,0.0285,0.0233,0.0166
44.1,0.7562,-0.8303,10.0197,0.0302,0.0254,0.0155
44.12,0.659,-0.7793,9.7749,0.0137,0.0113,0.0071
44.14,0.7455,-0.8704,9.6871,0.0039,0.0046,0.0015
44.16,0.6459,-0.8706,9.855,0.0097,0.0067,0.0051
44.18,0.5879,-0.8732,9.6314,-0.0174,-0.0131,-0.0088
44.2,0.6931,-0.774,9.7659,0.0102,0.0077,0.0051
44.22,0.6335,-0.8899,9.6916,-0.0046,-0.0035,-0.0023
44.24,0.6679,-0.894,9.8135,0.0082,0.0062,0.0041
44.26,0.7322,-0.6806,9.9156,0.0213,0.016,0.0107
44.28,0.8419,-0.7916,9.8836,0.0287,0.0216,0.0144
44.3,0.6616,-0.7777,9.8536,0.0164,0.0123,0.0082
44.32,0.7357,-0.8884,9.7255,-0.0029,-0.0022,-0.0015
44.34,0.521,-1.0055,9.5871,-0.0199,-0.0149,-0.01
44.36,0.6559,-0.85,9.5693,-0.004,-0.003,-0.002
44.38,0.3987,-1.0172,9.4613,-0.0402,-0.0301,-0.0201
44.4,0.5325,-0.9973,9.5373,-0.0128,-0.0096,-0.0064
44.42,0.4905,-1.0327,9.56,-0.0193,-0.0145,-0.0096
44.44,0.6351,-0.884,9.6623,-0.0045,-0.0034,-0.0023
44.46,0.3561,-0.949,9.581,-0.0278,-0.0209,-0.0139
44.48,0.6612,-0.8634,9.7029,0.0018,0.0014,0.0009
44.5,0.6243,-0.97,9.7399,0.006,0.0045,0.003
44.52,0.5784,-1.0441,9.6098,-0.0111,-0.0083,-0.0055
44.54,0.6013,-1.0181,9.7016,-0.0175,-0.0131,-0.0088
44.56,0.6015,-0.8402,9.7431,-0.0014,-0.0011,-0.0007
44.58,0.5297,-0.9128,9.5584,-0.0171,-0.0128,-0.0085
44.6,0.4723,-0.8964,9.6752,-0.0126,-0.0094,-0.0063
44.62,0.7607,-0.8117,9.776,0.0088,0.0066,0.0044
44.64,0.5896,-0.9561,9.6402,-0.0083,-0.0062,-0.0042
44.66,0.7489,-0.8237,9.7782,0.016,0.012,0.008
44.68,0.5015,-0.8724,9.6064,-0.0129,-0.0097,-0.0065
44.7,0.6281,-0.8597,9.7436,0.0068,0.0051,0.0034
44.72,0.4508,-0.9002,9.6581,-0.0127,-0.0095,-0.0064
44.74,0.6416,-0.9019,9.6915,-0.0001,-0.0001,-0.0
44.76,0.5838,-0.9271,9.6352,-0.0061,-0.0046,-0.0031
44.78,0.6181,-0.8181,9.7056,-0.0016,-0.0012,-0.0008
44.8,0.7822,-0.8041,9.8478,0.0164,0.0123,0.0082
44.82,0.5951,-0.818,9.7332,-0.0036,-0.0027,-0.0018
44.84,0.81,-0.7777,9.8779,0.0112,0.0084,0.0056
44.86,0.783,-0.8366,9.7518,0.0108,0.0081,0.0054
44.88,0.5779,-0.8353,9.6223,-0.0118,-0.0089,-0.0059
44.9,0.617,-0.9076,9.668,-0.0071,-0.0053,-0.0035
44.92,0.6527,-0.8776,9.7186,0.008,0.006,0.004
44.94,0.7185,-0.8765,9.8744,0.0099,0.0074,0.0049
44.96,0.715,-0.7259,9.8961,0.0189,0.0142,0.0095
44.98,0.6296,-0.7424,9.8787,0.0201,0.0151,0.0101
