time_s,acc_x,acc_y,acc_z,gyro_x,gyro_y,gyro_z
0.0,0.8558,-2.2763,9.2449,-0.0141,-0.0106,-0.0071
0.02,0.964,-2.1822,9.569,0.031,0.0232,0.0155
0.04,0.9069,-2.2639,9.5344,0.0143,0.0107,0.0072
0.06,0.7909,-2.1987,9.3548,-0.0056,-0.0042,-0.0028
0.08,0.7615,-2.1257,9.4333,0.0063,0.0047,0.0031
0.1,0.7455,-2.4052,9.313,-0.0162,-0.0122,-0.0081
0.12,0.7908,-2.2887,9.4435,-0.0044,-0.0033,-0.0022
0.14,0.8656,-2.2351,9.3234,-0.0131,-0.0098,-0.0066
0.16,0.828,-2.2138,9.5101,0.0017,0.0013,0.0008
0.18,0.7664,-2.3166,9.3526,-0.0093,-0.0069,-0.0046
0.2,0.8491,-2.3895,9.3946,-0.003,-0.0022,-0.0015
0.22,0.9437,-2.1318,9.4352,0.0099,0.0075,0.005
0.24,0.7623,-2.2441,9.3343,-0.0121,-0.0091,-0.006
0.26,0.7408,-2.1585,9.2708,-0.0102,-0.0077,-0.0051
0.28,0.8418,-2.1235,9.4754,-0.0001,-0.0001,-0.0001
0.3,0.8711,-2.2024,9.3425,-0.0033,-0.0025,-0.0017
0.32,0.8034,-2.1793,9.3845,0.0004,0.0003,0.0002
0.34,0.8738,-2.2207,9.3979,-0.0005,-0.0004,-0.0002
0.36,1.0168,-2.1759,9.5123,0.012,0.009,0.006
0.38,0.93,-2.1845,9.5112,0.0111,0.0083,0.0055
0.4,0.7868,-2.2819,9.4853,-0.0047,-0.0036,-0.0024
0.42,0.9543,-2.1977,9.4939,0.0122,0.0091,0.0061
0.44,0.8857,-2.1586,9.5283,0.0166,0.0124,0.0083
0.46,0.9878,-2.12,9.5083,0.0281,0.021,0.014
0.48,0.863,-2.3834,9.4153,-0.0053,-0.004,-0.0027
0.5,0.8769,-2.1517,9.5985,0.0172,0.0129,0.0086
0.52,0.7684,-2.3708,9.3421,-0.014,-0.0105,-0.007
0.54,0.8031,-2.2549,9.3686,0.0035,0.0026,0.0017
0.56,1.0183,-2.1135,9.4726,0.0169,0.0127,0.0085
0.58,0.8748,-2.3029,9.5244,0.013,0.0098,0.0065
0.6,0.8269,-2.2217,9.4175,0.0051,0.0038,0.0026
0.62,0.6621,-2.3018,9.2994,-0.0316,-0.0237,-0.0158
0.64,0.6719,-2.2814,9.2212,-0.024,-0.018,-0.012
0.66,0.8922,-2.2566,9.4451,0.006,0.0045,0.003
0.68,0.7201,-2.4014,9.33,-0.0186,-0.014,-0.0093
0.7,0.8683,-2.1773,9.528,0.0136,0.0102,0.0068
0.72,0.8986,-2.2907,9.4489,0.0034,0.0025,0.0017
0.74,0.8035,-2.23,9.2438,-0.0109,-0.0082,-0.0054
0.76,0.8414,-2.2918,9.3362,-0.0171,-0.0128,-0.0085
0.78,0.7659,-2.2398,9.2852,-0.0193,-0.0145,-0.0097
0.8,0.9205,-2.2283,9.4717,0.0135,0.0101,0.0067
0.82,0.8977,-2.3309,9.3313,-0.0015,-0.0011,-0.0008
0.84,0.8613,-2.2339,9.4094,-0.0025,-0.0019,-0.0013
0.86,0.8204,-2.2101,9.2983,-0.0238,-0.0179,-0.0119
0.88,0.9134,-2.219,9.4388,0.0016,0.0012,0.0008
0.9,0.9739,-2.1737,9.4592,0.0116,0.0087,0.0058
0.92,0.9379,-2.1751,9.4521,0.0023,0.0017,0.0012
0.94,0.8504,-2.286,9.367,-0.0103,-0.0078,-0.0052
0.96,0.8414,-2.2221,9.4095,-0.0037,-0.0028,-0.0019
0.98,0.8842,-2.298,9.3423,0.0056,0.0042,0.0028
1.0,0.8776,-2.2505,9.3473,-0.0054,-0.004,-0.0027
1.02,0.8702,-2.2372,9.4473,-0.0021,-0.0016,-0.0011
1.04,0.6895,-2.2688,9.4395,0.0022,0.0017,0.0011
1.06,0.8167,-2.2093,9.4577,0.0024,0.0018,0.0012
1.08,0.8161,-2.2563,9.2533,-0.0172,-0.0129,-0.0086
1.1,0.7798,-2.233,9.3923,0.0055,0.0041,0.0028
1.12,0.8404,-2.2592,9.4481,0.0051,0.0038,0.0025
1.14,0.912,-2.2269,9.594,0.0186,0.0139,0.0093
1.16,0.6661,-2.3213,9.3579,-0.0139,-0.0104,-0.0069
1.18,0.9491,-2.153,9.4839,0.0131,0.0099,0.0066
1.2,0.8235,-2.2868,9.4051,0.0008,0.0006,0.0004
1.22,0.7958,-2.5043,9.2581,-0.0256,-0.0192,-0.0128
1.24,1.1245,-2.1516,9.6138,0.0395,0.0296,0.0197
1.26,0.9764,-2.2071,9.5783,0.0175,0.0131,0.0088
1.28,0.7961,-2.2968,9.1867,-0.0243,-0.0183,-0.0122
1.3,0.9311,-2.1181,9.5332,0.0186,0.0139,0.0093
1.32,0.7573,-2.24,9.2729,-0.0101,-0.0076,-0.0051
1.34,0.9319,-2.0901,9.512,0.0199,0.0149,0.01
1.36,0.7877,-2.2263,9.309,0.0013,0.001,0.0006
1.38,0.6029,-2.3289,9.1686,-0.0288,-0.0216,-0.0144
1.4,0.6083,-2.3309,9.2473,-0.024,-0.018,-0.012
1.42,0.986,-2.2677,9.4151,0.0011,0.0008,0.0005
1.44,0.8378,-2.2608,9.3897,-0.01,-0.0075,-0.005
1.46,0.838,-2.2605,9.3345,-0.0067,-0.005,-0.0034
1.48,0.6971,-2.2234,9.2262,-0.0265,-0.0199,-0.0133
1.5,0.8269,-2.299,9.3334,-0.0118,-0.0089,-0.0059
1.52,0.8138,-2.2155,9.4555,0.0051,0.0038,0.0026
1.54,0.7506,-2.2679,9.3179,-0.0113,-0.0085,-0.0057
1.56,0.9356,-2.186,9.4439,0.0195,0.0146,0.0097
1.58,1.0597,-2.1509,9.6377,0.0311,0.0233,0.0156
1.6,1.0916,-2.1662,9.6396,0.0352,0.0264,0.0176
1.62,1.0356,-2.234,9.5129,0.0218,0.0164,0.0109
1.64,0.9191,-2.2205,9.4974,0.0112,0.0084,0.0056
1.66,0.8004,-2.3472,9.3152,-0.0195,-0.0146,-0.0098
1.68,1.0029,-2.071,9.6215,0.0382,0.0286,0.0191
1.7,0.918,-2.2901,9.4434,-0.0014,-0.0011,-0.0007
1.72,0.7377,-2.1688,9.2332,-0.0145,-0.0108,-0.0072
1.74,0.7878,-2.2973,9.3695,-0.0075,-0.0056,-0.0038
1.76,0.7917,-2.297,9.2953,-0.0095,-0.0071,-0.0047
1.78,1.0001,-2.2359,9.5274,0.024,0.018,0.012
1.8,0.7281,-2.2784,9.294,-0.0176,-0.0132,-0.0088
1.82,0.9312,-2.2354,9.421,0.0089,0.0067,0.0045
1.84,0.9222,-2.2297,9.5056,0.024,0.018,0.012
1.86,0.8909,-2.2248,9.4772,0.0066,0.0049,0.0033
1.88,0.8356,-2.1901,9.4052,0.005,0.0037,0.0025
1.9,0.901,-2.1405,9.6017,0.0276,0.0207,0.0138
1.92,0.721,-2.5053,9.1759,-0.0299,-0.0224,-0.0149
1.94,0.692,-2.5316,9.1318,-0.0383,-0.0287,-0.0191
1.96,0.8932,-2.3153,9.3571,0.0027,0.0018,0.0015
1.98,0.6721,-2.2787,9.4259,-0.0076,-0.0049,-0.0043
2.0,0.8647,-2.2847,9.4208,0.0021,0.0015,0.0014
2.02,0.8397,-2.3032,9.4167,0.0014,0.0016,0.0017
2.04,0.797,-2.3419,9.4143,-0.0065,-0.003,-0.0029
2.06,0.8357,-2.1828,9.4817,0.0035,0.0013,0.0017
2.08,0.7986,-2.2989,9.3064,-0.0082,-0.0023,0.0005
2.1,0.7415,-2.0136,9.3956,-0.0053,-0.0046,-0.0008
2.12,0.7841,-2.3037,9.4288,-0.0104,-0.0113,-0.0051
2.14,1.0213,-2.2159,9.4268,0.0111,0.0087,0.0044
2.16,0.9014,-2.2737,9.4516,0.0124,0.008,0.0026
2.18,0.7367,-2.1482,9.3636,0.0006,-0.0014,0.0014
2.2,0.7718,-2.224,9.3236,-0.0107,-0.0133,-0.0049
2.22,0.7681,-2.2257,9.4735,0.0084,0.0027,-0.001
2.24,0.7356,-2.3685,9.1796,-0.0186,-0.0184,-0.01
2.26,0.7296,-2.4146,9.3222,-0.0223,-0.0095,-0.0097
2.28,0.8876,-2.3432,9.3739,-0.0123,0.0036,0.0039
2.3,0.7291,-2.2516,9.2988,-0.003,-0.0185,-0.0067
2.32,0.7405,-2.2799,9.5847,0.0171,0.0222,0.0071
2.34,0.6877,-2.2385,9.2403,-0.028,-0.011,-0.0031
2.36,0.9158,-2.1615,9.5621,0.0141,0.0253,-0.001
2.38,0.8878,-2.4448,9.4236,0.0165,0.0218,0.0135
2.4,0.9068,-2.3259,9.475,0.0199,0.0149,0.0234
2.42,0.7129,-2.5323,9.1816,-0.0242,-0.0013,-0.0168
2.44,0.6814,-2.1756,9.3891,-0.0217,-0.0006,-0.0116
2.46,0.8032,-2.3877,9.2808,-0.0271,-0.0194,-0.0029
2.48,0.8895,-1.9873,9.5885,0.03,0.0248,0.0164
2.5,0.7235,-2.3285,9.4948,-0.0115,-0.0023,-0.0082
2.52,0.8125,-2.2745,9.2684,-0.0304,-0.0204,-0.0002
2.54,1.1597,-2.3589,9.5023,0.0224,0.0111,0.0112
2.56,0.8128,-2.3306,9.1924,-0.0289,-0.026,-0.0204
2.58,1.0286,-2.1933,9.4207,0.0033,0.0153,0.0085
2.6,0.6379,-2.3651,9.2419,-0.0163,-0.0158,0.0018
2.62,0.8607,-2.0988,9.4435,0.0119,0.0087,0.0094
2.64,0.6861,-2.3156,9.1638,-0.021,-0.0176,-0.0211
2.66,0.8814,-2.245,9.5266,0.0064,0.0214,0.0183
2.68,0.6705,-2.1687,9.3939,0.0081,0.0385,-0.0177
2.7,0.7537,-2.5411,9.3234,-0.0185,-0.0431,-0.0129
2.72,0.8035,-2.1818,9.3167,-0.0075,-0.032,0.014
2.74,0.7502,-2.2563,9.6477,0.0178,-0.0124,0.0376
2.76,1.0464,-2.2241,9.4284,0.0247,0.0156,0.0002
2.78,0.8037,-2.4803,9.2567,0.0759,0.0856,0.0233
2.8,0.7884,-2.6583,9.1603,0.081,0.1361,0.0005
2.82,0.9872,-2.4525,9.0034,0.0281,0.0977,-0.0095
2.84,0.7895,-2.2867,9.1051,-0.0322,-0.0427,-0.0226
2.86,0.6871,-2.4831,8.9602,-0.1214,-0.2675,-0.0423
2.88,0.3673,-2.1883,8.6913,-0.2959,-0.3937,-0.1486
2.9,0.1227,-1.8241,8.9679,-0.3551,-0.1915,-0.1141
2.92,0.2676,-1.9955,10.1567,-0.2801,0.183,-0.1038
2.94,0.4963,-1.8328,11.3752,-0.1495,0.5253,-0.0179
2.96,0.7916,-1.861,11.4978,0.073,0.5495,0.0255
2.98,1.2329,-2.0731,10.5189,0.2804,0.2258,0.1261
3.0,1.1667,-2.1633,8.9923,0.3228,-0.199,0.1092
3.02,0.7557,-2.062,8.573,0.27,-0.4196,0.1034
3.04,0.8784,-2.2907,8.7538,0.1895,-0.3636,0.1078
3.06,0.884,-2.3625,9.0123,0.0588,-0.0846,0.0544
3.08,0.6551,-2.3872,8.9787,-0.0353,0.0945,0.0108
3.1,0.6064,-2.2361,9.0942,-0.0894,0.1523,0.0334
3.12,0.6032,-2.4717,9.1753,-0.0644,0.1233,-0.0569
3.14,0.7714,-2.2891,9.2649,-0.0415,0.0164,-0.0191
3.16,0.69,-2.389,9.6148,0.0054,-0.0092,-0.0457
3.18,0.7981,-2.1502,9.5313,0.0115,-0.0241,-0.0852
3.2,0.6242,-2.2144,9.4537,0.0118,-0.0026,0.0198
3.22,0.6992,-2.4293,9.1938,-0.0138,-0.0234,-0.0415
3.24,0.6235,-2.2542,9.426,0.0092,-0.0395,-0.0624
3.26,0.6209,-2.2596,9.3517,0.0267,-0.0189,-0.0538
3.28,0.862,-2.2149,9.4883,0.0685,0.0196,-0.04
3.3,0.5708,-2.2773,9.3405,0.0598,0.0718,-0.0207
3.32,0.9796,-2.4491,9.0903,0.0789,0.1164,0.0014
3.34,0.8111,-2.2101,8.9267,0.0758,0.1299,-0.0188
3.36,0.6998,-2.3389,9.115,0.0322,0.049,0.0213
3.38,0.7216,-2.1531,8.9462,-0.1091,-0.189,0.0759
3.4,0.7176,-2.1792,8.879,-0.2218,-0.398,0.1171
3.42,0.4977,-2.402,8.9716,-0.2649,-0.331,0.1167
3.44,0.0154,-2.4928,9.3472,-0.313,-0.0677,0.1192
3.46,0.1085,-2.7145,10.407,-0.2222,0.3794,0.1096
3.48,0.7202,-2.5277,11.2111,-0.012,0.5188,0.0086
3.5,1.2889,-2.394,10.8381,0.1698,0.4259,-0.0459
3.52,1.2105,-2.3975,9.6095,0.3265,0.0533,-0.1008
3.54,1.0339,-2.462,8.8331,0.2915,-0.321,-0.124
3.56,0.8531,-2.1373,8.6485,0.2185,-0.4205,-0.128
3.58,0.9364,-2.0695,8.7808,0.109,-0.2019,-0.053
3.6,0.737,-2.1415,8.9956,-0.0128,0.0021,-0.0503
3.62,0.4239,-2.2365,8.8069,-0.0665,0.1413,-0.0265
3.64,0.8196,-2.292,9.2461,-0.0852,0.1913,-0.027
3.66,0.8016,-1.9906,9.194,-0.0511,0.0665,-0.0062
3.68,0.4489,-2.4138,9.5796,-0.1193,0.0042,-0.0202
3.7,0.8578,-2.1317,9.5316,0.0045,-0.0162,0.0059
3.72,0.7916,-2.1097,9.5632,0.026,-0.0195,-0.0089
3.74,0.7724,-2.5761,9.3938,0.0148,0.026,0.0082
3.76,0.7709,-2.1514,9.2228,-0.0585,-0.0552,0.0191
3.78,0.848,-2.1504,9.571,0.0116,0.0056,0.0295
3.8,0.6771,-2.4107,9.3876,-0.0185,-0.0489,0.0085
3.82,0.6283,-2.2689,9.5697,-0.0057,-0.0188,0.0229
3.84,1.0828,-2.0839,9.3684,0.0436,-0.023,0.0403
3.86,0.9236,-2.253,9.2137,0.0484,0.0533,0.0215
3.88,1.0516,-2.3825,9.1421,0.1008,0.1465,0.0044
3.9,0.7914,-2.317,9.2665,0.0787,0.1822,0.0188
3.92,0.781,-2.4399,8.8597,0.0209,0.0109,-0.0465
3.94,0.6846,-2.0249,8.932,-0.1254,-0.2433,-0.0898
3.96,0.402,-2.0977,8.871,-0.2784,-0.4401,-0.1337
3.98,0.4395,-2.0511,8.9486,-0.3695,-0.3345,-0.1273
4.0,0.1943,-2.0882,9.5506,-0.3042,-0.0398,-0.1104
4.02,0.7711,-1.9899,11.2282,-0.2066,0.3858,-0.0456
4.04,0.9353,-1.7718,11.7345,-0.0316,0.5655,-0.0099
4.06,1.1195,-1.8765,10.8303,0.177,0.3684,0.0455
4.08,1.5354,-1.8388,9.581,0.323,-0.0353,0.0882
4.1,1.4272,-1.9056,9.1368,0.3169,-0.3575,0.154
4.12,1.475,-2.1437,8.9347,0.2413,-0.4135,0.1083
4.14,0.7284,-2.2327,9.1697,0.0965,-0.2346,0.0539
4.16,0.6643,-2.3605,8.9871,0.0176,0.0574,0.0428
4.18,0.8057,-2.3824,8.8716,-0.0902,0.1508,0.0242
4.2,0.7315,-2.4965,9.4012,-0.0979,0.1478,-0.0258
4.22,0.9736,-2.2016,9.6787,-0.0588,0.0467,-0.0083
4.24,0.8848,-2.2524,9.6433,-0.0627,0.001,-0.0264
4.26,0.8099,-2.165,9.513,0.007,-0.0511,-0.0136
4.28,0.9471,-2.1097,9.5807,-0.0424,-0.0383,-0.0277
4.3,0.9098,-2.0075,9.4569,-0.0074,0.009,0.0295
4.32,0.7744,-2.2742,9.4723,0.0156,-0.0308,0.0058
4.34,1.2916,-2.2167,9.5607,0.0208,-0.0125,0.0289
4.36,0.913,-2.1752,9.5035,0.0198,-0.0049,-0.0118
4.38,0.9416,-2.1626,9.561,-0.0245,0.0178,-0.0161
4.4,0.5769,-2.087,9.5922,0.0021,-0.0423,-0.0156
4.42,0.9737,-2.0401,9.7358,0.0502,0.0108,0.002
4.44,0.8308,-2.3348,9.4211,0.0409,-0.042,-0.0243
4.46,0.8296,-2.0195,9.3375,0.061,0.0645,-0.0199
4.48,0.9217,-1.9698,9.1606,0.1047,0.1858,-0.0212
4.5,0.7555,-2.2405,9.0942,0.0789,0.1313,0.0077
4.52,0.9584,-2.2281,8.8486,-0.0022,-0.0239,0.0708
4.54,0.7928,-1.9546,8.8533,-0.1245,-0.2928,0.1279
4.56,0.4567,-2.1983,8.8806,-0.2696,-0.4207,0.1097
4.58,0.3174,-2.1445,9.1827,-0.3041,-0.2997,0.1277
4.6,0.1028,-2.3924,9.6967,-0.2897,0.124,0.0964
4.62,0.5874,-2.7272,11.0988,-0.1942,0.487,0.0429
4.64,0.7296,-2.5626,11.4616,0.0785,0.5887,-0.0123
4.66,1.3431,-2.6669,10.3716,0.2293,0.3068,-0.0772
4.68,1.3809,-2.4615,9.1135,0.3507,-0.0876,-0.0826
4.7,0.9662,-2.7243,8.5552,0.2767,-0.4039,-0.1543
4.72,0.8706,-2.0808,8.571,0.1676,-0.3813,-0.1531
4.74,1.1936,-2.3466,8.8606,0.0488,-0.1869,-0.0845
4.76,0.9526,-2.196,8.8166,-0.029,0.0329,-0.0627
4.78,0.8377,-2.1568,9.1067,-0.0735,0.1863,0.0239
4.8,0.8106,-2.1056,9.2547,-0.0454,0.1422,0.0029
4.82,0.5413,-2.5485,9.1445,-0.0611,0.0443,0.0351
4.84,0.7249,-2.1823,9.4087,-0.0528,0.0155,0.0364
4.86,0.8165,-2.319,9.5122,0.0285,-0.0167,0.0028
4.88,0.7816,-2.4092,9.3904,0.0198,-0.0151,0.0269
4.9,0.6835,-2.2255,9.1731,0.0008,-0.013,-0.0126
4.92,0.8854,-2.3971,9.4292,0.0006,0.0087,0.0106
4.94,0.6137,-2.4526,9.307,0.0112,-0.0456,0.003
4.96,0.8617,-2.2235,9.5025,0.0291,-0.0373,0.0366
4.98,0.9376,-2.279,9.2621,0.089,0.0249,-0.0208
5.0,0.9683,-2.3564,9.2606,0.1384,0.1532,0.0243
5.02,1.0635,-2.5322,8.9105,0.0862,0.1543,0.0016
5.04,0.9128,-2.5189,9.005,0.0722,0.0848,-0.0314
5.06,0.6919,-2.4436,8.732,-0.0681,-0.1394,-0.0959
5.08,0.4536,-2.3109,8.7893,-0.171,-0.3652,-0.1387
5.1,0.5148,-1.9442,8.7424,-0.2825,-0.4643,-0.1671
5.12,0.1291,-2.1391,9.1593,-0.4022,-0.2074,-0.1477
5.14,0.3729,-1.9819,10.6237,-0.2847,0.2961,-0.1118
5.16,0.5241,-1.8105,11.6481,-0.0562,0.5841,-0.0091
5.18,0.9639,-1.8823,11.0769,0.1268,0.5673,0.0634
5.2,1.6615,-1.9999,10.2452,0.3208,0.1824,0.0865
5.22,1.0006,-2.1222,8.79,0.3264,-0.321,0.1243
5.24,1.088,-2.2438,8.6087,0.3112,-0.4424,0.1472
5.26,0.9186,-2.3074,8.6297,0.1552,-0.3167,0.1084
5.28,0.9042,-2.1989,8.9903,0.1092,-0.0898,0.0611
5.3,0.6871,-2.1567,9.0851,-0.0435,0.1334,0.0303
5.32,0.8245,-2.2611,9.0929,-0.097,0.1635,-0.0079
5.34,0.5119,-2.2691,9.1834,-0.1098,0.1186,-0.0027
5.36,0.567,-2.2629,9.3283,-0.0706,0.0241,-0.0282
5.38,0.819,-2.1964,9.3476,-0.041,-0.0476,-0.0495
5.4,0.6384,-2.145,9.7347,-0.0159,-0.047,-0.0082
5.42,0.7456,-2.0989,9.9448,0.0286,-0.0226,0.0178
5.44,0.7893,-2.3402,9.1879,0.0526,-0.0499,-0.0132
5.46,1.0869,-2.0357,9.4187,0.0787,0.0156,0.0088
5.48,0.6467,-2.2035,9.2693,0.0863,0.0631,-0.0509
5.5,0.9013,-1.9306,9.2136,0.0868,0.1346,-0.0001
5.52,0.8542,-2.0877,9.2483,0.0937,0.1649,0.0364
5.54,0.6596,-2.2222,8.7768,-0.0678,0.0011,0.034
5.56,0.8295,-2.2573,8.8192,-0.145,-0.2518,0.0529
5.58,0.5614,-2.221,8.5853,-0.3032,-0.4184,0.0918
5.6,0.2992,-2.3014,8.9154,-0.3263,-0.3109,0.0882
5.62,0.6468,-2.3496,10.0038,-0.2779,0.0698,0.082
5.64,0.1521,-2.4543,10.8638,-0.1313,0.4427,0.0563
5.66,1.0209,-2.1769,11.6735,0.047,0.5243,0.0113
5.68,1.6737,-2.4072,10.8905,0.2146,0.3525,-0.0526
5.7,1.58,-2.4389,9.491,0.2962,-0.0906,-0.0938
5.72,1.4905,-2.1395,9.0345,0.3086,-0.3693,-0.1316
5.74,0.9353,-2.0757,8.8734,0.2303,-0.3752,-0.1376
5.76,1.1043,-1.9812,9.2976,0.1268,-0.1589,-0.0565
5.78,0.8471,-2.0279,9.1735,-0.0505,0.0274,-0.0587
5.8,0.7651,-1.7805,9.2337,-0.0792,0.1517,-0.0089
5.82,1.0645,-1.8769,9.4664,-0.0358,0.1291,0.0221
5.84,0.8491,-1.8571,9.4228,-0.0713,0.0664,0.0071
5.86,1.0184,-2.1618,9.7187,-0.0086,-0.0073,0.0213
5.88,0.6929,-2.3349,9.4466,-0.0521,-0.0239,0.0117
5.9,1.0147,-2.247,9.7609,0.0216,-0.0188,0.0135
5.92,1.239,-2.0262,9.4709,0.027,0.0208,-0.0187
5.94,0.9167,-2.0816,9.5167,0.0116,0.0222,0.0222
5.96,0.7514,-2.0935,9.5907,0.0079,0.0106,-0.0022
5.98,0.9872,-2.3522,9.5302,0.0051,-0.0424,0.0112
6.0,0.9234,-2.2448,9.3911,-0.0048,-0.0687,-0.0015
6.02,0.814,-2.2029,9.4989,0.0767,0.0353,0.0073
6.04,1.131,-2.1226,9.3382,0.1141,0.118,0.0102
6.06,0.9994,-2.4798,9.1635,0.1252,0.2008,0.0253
6.08,1.1791,-2.2358,9.1217,0.0527,0.1736,-0.0005
6.1,1.0552,-2.388,8.9201,-0.0141,-0.0135,-0.0501
6.12,0.9495,-2.2837,9.0222,-0.1366,-0.3186,-0.0844
6.14,0.6912,-2.1826,8.819,-0.2881,-0.5293,-0.0961
6.16,0.0372,-2.1947,8.9649,-0.3886,-0.3432,-0.1485
6.18,0.1579,-2.0529,9.7899,-0.3773,0.1283,-0.1543
6.2,0.7987,-1.6957,11.4708,-0.1728,0.5722,-0.0691
6.22,0.7439,-1.9043,11.4823,0.0258,0.6307,0.0047
6.24,1.0475,-2.0319,10.1989,0.2243,0.3548,0.0794
6.26,1.194,-2.1257,8.8735,0.3401,-0.1394,0.1188
6.28,1.5343,-2.3229,8.8162,0.362,-0.4433,0.1306
6.3,0.9466,-2.2384,8.7648,0.2353,-0.4774,0.1166
6.32,0.7586,-2.402,8.7175,0.1096,-0.1825,0.0961
6.34,0.9107,-2.2197,8.9955,-0.0299,0.0909,0.0543
6.36,0.6703,-2.3198,8.9381,-0.092,0.1817,0.0032
6.38,0.7604,-2.2709,9.1003,-0.0857,0.1243,0.0082
6.4,0.8976,-2.224,9.4854,-0.0516,0.074,-0.04
6.42,0.5976,-2.1257,9.6067,0.0065,0.0152,-0.0319
6.44,0.9053,-2.2655,9.4357,-0.0227,-0.0413,-0.0074
6.46,0.9296,-2.1528,9.458,0.0406,-0.0363,0.007
6.48,0.6539,-2.0686,9.429,0.0618,-0.0327,-0.0238
6.5,0.6961,-2.1474,9.2886,0.0837,0.0183,-0.009
6.52,0.8635,-2.198,9.2747,0.1144,0.139,-0.0009
6.54,0.9292,-2.2187,9.1872,0.0768,0.1527,0.0244
6.56,0.9338,-2.0129,8.8921,0.0582,0.1117,0.0433
6.58,0.7513,-2.1045,8.6453,-0.0616,-0.1525,0.0158
6.6,0.763,-2.1705,8.9078,-0.1571,-0.3061,0.0656
6.62,0.4215,-2.2386,8.9718,-0.2443,-0.3663,0.1085
6.64,-0.0286,-2.4274,8.8784,-0.3046,-0.1295,0.0956
6.66,0.2905,-2.4231,10.2096,-0.2155,0.1925,0.082
6.68,0.6204,-2.5881,11.1258,-0.0416,0.4643,0.0307
6.7,0.8854,-2.5682,10.5498,0.1186,0.4266,-0.0804
6.72,1.3987,-2.4912,9.9995,0.2686,0.1087,-0.0926
6.74,1.1855,-2.2903,9.0644,0.302,-0.223,-0.0993
6.76,1.0485,-2.2464,8.8906,0.2805,-0.3928,-0.1093
6.78,1.0576,-2.0258,8.8115,0.133,-0.2623,-0.0712
6.8,0.8469,-2.0941,9.0531,0.0755,-0.0367,-0.0676
6.82,1.0286,-2.1434,9.0741,-0.0409,0.1218,-0.0032
6.84,0.9051,-2.223,9.1832,-0.0644,0.1421,-0.0053
6.86,0.9317,-2.0538,9.6604,0.0008,0.1137,0.044
6.88,0.8033,-2.17,9.4415,-0.0101,0.0304,0.013
6.9,0.5142,-2.195,9.3957,-0.028,-0.0231,-0.0236
6.92,0.9239,-2.2089,9.7153,0.0457,-0.0051,0.0539
6.94,0.8562,-2.3164,9.3823,0.0528,-0.0221,0.0083
6.96,0.9039,-2.1136,9.3027,0.015,-0.0095,-0.046
6.98,0.9064,-2.0922,9.387,0.0133,0.0228,0.0129
7.0,0.9478,-2.406,9.5331,-0.0099,-0.0003,-0.0058
7.02,0.8775,-2.0518,9.4005,0.0014,0.0052,0.0051
7.04,0.6442,-2.3228,9.3984,-0.0077,-0.0239,-0.0154
7.06,0.9492,-2.4412,9.4943,0.0191,-0.0408,-0.0222
7.08,0.6366,-2.469,9.3896,0.0327,-0.0278,-0.003
7.1,1.0069,-2.0306,9.4301,0.1021,0.0607,0.0406
7.12,1.0938,-2.3862,9.1585,0.0837,0.1562,-0.0103
7.14,0.812,-2.3289,9.0454,0.0289,0.0606,-0.0015
7.16,0.8508,-2.3224,9.1991,-0.0003,-0.0536,-0.0636
7.18,0.976,-2.2755,9.1027,-0.1603,-0.2637,-0.0917
7.2,0.9152,-2.1004,9.1434,-0.2739,-0.4437,-0.1349
7.22,0.5945,-2.2973,9.2335,-0.334,-0.3386,-0.1131
7.24,0.7262,-2.2163,9.7627,-0.3381,0.1016,-0.1192
7.26,0.8711,-1.9275,10.7752,-0.1513,0.4507,-0.0437
7.28,0.6871,-2.1477,10.6725,0.0683,0.5564,0.007
7.3,1.2484,-2.245,10.2495,0.2409,0.3075,0.0455
7.32,1.7158,-1.8653,9.8341,0.3542,-0.0759,0.1013
7.34,1.241,-2.1239,8.9303,0.3857,-0.3833,0.1416
7.36,0.9303,-2.1782,8.965,0.1887,-0.3662,0.1106
7.38,0.8749,-2.5315,8.9882,0.0742,-0.2167,0.0216
7.4,1.0759,-2.09,9.1229,-0.0007,0.0604,0.0185
7.42,0.6563,-2.1468,9.1849,-0.0687,0.1436,-0.032
7.44,0.5491,-2.3569,9.3123,-0.0753,0.1282,-0.0283
7.46,0.9302,-1.9769,9.6441,-0.0337,0.0574,0.0054
7.48,0.7833,-2.2486,9.5357,0.0002,-0.0354,-0.0306
7.5,1.0021,-2.1967,9.5631,-0.0043,-0.0052,-0.0218
7.52,1.0431,-2.2194,9.6785,0.0292,-0.0379,-0.0232
7.54,0.9799,-2.3575,9.6217,0.027,0.0254,-0.0074
7.56,0.9391,-2.3359,9.4642,0.0435,-0.0112,0.0138
7.58,1.1935,-1.993,9.5548,0.0433,0.0308,0.0041
7.6,1.0747,-2.1407,9.7094,0.0171,-0.0352,-0.0023
7.62,0.7673,-2.3549,9.5385,0.0139,-0.0185,0.0008
7.64,0.8748,-2.2692,9.735,0.0171,-0.0442,-0.0097
7.66,0.9692,-2.2381,9.6737,0.065,-0.0512,0.0447
7.68,1.0611,-2.0095,9.332,0.0616,0.0454,0.0098
7.7,0.9534,-2.2186,9.1885,0.0911,0.1128,0.0245
7.72,1.0564,-2.1287,9.3054,0.1202,0.16,0.0213
7.74,1.1155,-2.1588,8.9824,0.045,0.1364,0.0391
7.76,0.9131,-1.9242,9.0289,-0.0346,-0.1364,0.0571
7.78,0.9562,-2.2762,9.1702,-0.1655,-0.3452,0.0971
7.8,0.5617,-2.3071,8.6843,-0.3246,-0.4527,0.129
7.82,0.6717,-2.4483,9.2284,-0.349,-0.1661,0.1537
7.84,0.3774,-2.3386,10.3348,-0.2956,0.2252,0.1035
7.86,0.7392,-2.5189,11.2298,-0.0768,0.5563,0.011
7.88,0.7258,-2.7241,10.557,0.0955,0.535,-0.0625
7.9,1.5482,-2.2697,10.0424,0.3047,0.1897,-0.1001
7.92,1.2281,-2.5666,9.0211,0.3609,-0.3389,-0.1436
7.94,1.1994,-1.9852,8.919,0.3461,-0.4447,-0.124
7.96,1.0651,-2.0387,8.876,0.199,-0.3309,-0.0877
7.98,0.9612,-2.1739,8.8465,0.0597,-0.1081,-0.0471
8.0,0.8902,-2.0845,9.0392,-0.0201,0.1142,-0.037
8.02,0.8597,-2.065,9.1934,-0.0837,0.189,-0.0079
8.04,0.8125,-1.9959,9.1454,-0.0883,0.1336,0.0177
8.06,0.6125,-2.2866,9.3754,-0.0786,0.0175,0.027
8.08,0.5371,-2.3093,9.325,-0.0474,-0.0436,0.0193
8.1,0.782,-2.3787,9.3899,-0.0141,-0.0753,-0.0076
8.12,0.6983,-2.1653,9.2558,-0.0029,-0.0204,-0.0029
8.14,0.7024,-2.3411,9.2803,0.0114,-0.0121,-0.0119
8.16,0.9278,-2.1798,9.1779,-0.0242,-0.0081,0.0298
8.18,0.7447,-2.3082,9.2927,0.022,-0.0265,0.0127
8.2,0.8401,-2.1138,9.4178,0.0274,-0.0149,0.0172
8.22,0.5412,-2.293,9.2296,0.0421,-0.0163,0.0204
8.24,0.7933,-2.3461,9.279,0.0112,-0.0066,0.0207
8.26,0.8999,-2.3077,9.1956,0.0781,0.0818,0.0205
8.28,0.7531,-2.3374,9.1246,0.1474,0.1918,-0.0087
8.3,0.8939,-2.2024,8.8998,0.1293,0.1146,-0.0295
8.32,0.726,-2.355,8.7607,-0.0002,-0.0824,-0.0528
8.34,0.8371,-2.3334,9.0266,-0.1026,-0.2892,-0.0818
8.36,0.7245,-2.1936,8.9161,-0.279,-0.4244,-0.1252
8.38,0.6343,-2.1115,9.1555,-0.31,-0.3317,-0.1238
8.4,0.252,-2.1288,9.7229,-0.2863,0.0857,-0.0914
8.42,0.5392,-2.0743,10.9779,-0.1481,0.4752,-0.0477
8.44,0.9716,-1.6633,11.278,0.0531,0.5343,0.0129
8.46,0.994,-2.2089,10.0562,0.2561,0.2989,0.1157
8.48,1.5092,-1.9161,9.2703,0.3713,-0.1202,0.0873
8.5,1.2968,-1.8794,8.8748,0.3335,-0.3963,0.1019
8.52,1.0578,-2.2057,9.0251,0.2431,-0.3526,0.1064
8.54,1.0823,-2.1672,8.8999,0.1076,-0.2057,0.0974
8.56,0.7121,-2.1106,9.0681,-0.0075,0.0942,0.0764
8.58,0.8587,-2.3216,9.1738,-0.1106,0.139,0.0025
8.6,0.7948,-2.1644,9.0812,-0.0832,0.1165,-0.0105
8.62,0.7624,-2.2735,9.5615,-0.0443,0.0666,0.0046
8.64,0.7435,-2.2588,9.4818,-0.028,-0.0492,-0.0305
8.66,0.8673,-2.1525,9.3155,-0.0097,-0.0895,0.0009
8.68,0.8273,-2.2747,9.4042,-0.0187,-0.0522,-0.0228
8.7,0.8958,-2.2656,9.4595,-0.0103,-0.0,0.0415
8.72,1.0403,-2.1161,9.5422,0.0124,0.0033,-0.0126
8.74,0.8523,-2.3221,9.2186,-0.0054,-0.0204,-0.0239
8.76,1.0373,-2.2582,9.683,-0.0167,-0.0327,-0.0111
8.78,0.9944,-2.1088,9.4895,-0.0119,-0.0201,-0.02
8.8,0.7681,-2.072,9.6986,0.0328,-0.0337,-0.0072
8.82,1.0441,-2.3729,9.5717,0.0737,-0.0316,-0.0374
8.84,1.2083,-2.1542,9.5604,0.0801,0.0543,-0.0307
8.86,1.0168,-2.225,9.377,0.1065,0.1475,-0.0021
8.88,1.0517,-2.2025,9.1654,0.0757,0.1905,-0.0169
8.9,1.0705,-1.9744,9.1433,0.0383,0.0468,0.0359
8.92,0.7294,-1.9533,8.9101,-0.1076,-0.29,0.0632
8.94,0.985,-2.0954,8.8898,-0.2699,-0.4666,0.1342
8.96,0.7139,-2.195,9.3268,-0.3397,-0.413,0.2005
8.98,0.5945,-2.1008,9.7942,-0.3375,-0.0461,0.1288
9.0,0.5318,-2.5137,10.8307,-0.2058,0.4624,0.0629
9.02,0.9986,-2.5121,11.9606,-0.0438,0.6883,-0.0268
9.04,1.6592,-2.4036,11.3704,0.257,0.5075,-0.0642
9.06,1.4195,-2.5339,9.5172,0.385,0.0112,-0.1319
9.08,1.4262,-2.3665,9.0408,0.421,-0.409,-0.1383
9.1,1.0846,-2.1915,9.0605,0.3129,-0.5274,-0.1715
9.12,1.1277,-2.144,9.1996,0.196,-0.29,-0.0647
9.14,0.7499,-2.112,9.1048,0.0078,0.0084,-0.0735
9.16,0.8427,-1.912,9.1467,-0.0574,0.2128,-0.0032
9.18,0.8277,-2.2234,8.9604,-0.1339,0.1537,-0.0159
9.2,0.9364,-2.1335,9.3758,-0.0838,0.0462,0.0183
9.22,0.7744,-2.13,9.4781,-0.0397,-0.0223,0.0243
9.24,0.9724,-2.2574,9.3695,-0.0126,-0.0618,0.0243
9.26,1.0134,-2.2568,9.6274,-0.013,-0.0443,-0.0089
9.28,0.972,-2.2748,9.599,-0.0146,-0.05,-0.0446
9.3,1.0447,-1.9964,9.6722,0.0319,-0.0013,0.0239
9.32,0.8621,-2.2707,9.5392,0.0212,-0.0217,-0.0042
9.34,1.0291,-2.0641,9.6058,0.0123,0.0148,0.034
9.36,1.0367,-2.1004,9.6303,0.046,-0.0302,0.0015
9.38,0.8206,-2.047,9.5217,0.0719,0.005,0.039
9.4,0.7447,-2.5213,9.2607,0.074,0.0794,-0.0387
9.42,0.9256,-2.2822,9.0833,0.0799,0.1717,-0.0116
9.44,0.7606,-2.1811,9.1291,0.0599,0.1296,-0.0312
9.46,0.8561,-2.2793,8.9026,-0.0574,-0.0937,-0.0453
9.48,0.8319,-2.1059,9.0578,-0.1998,-0.3457,-0.0954
9.5,0.7809,-2.1705,9.0676,-0.2614,-0.4139,-0.1446
9.52,0.6635,-2.1286,9.3173,-0.2858,-0.1946,-0.126
9.54,0.4778,-1.9953,10.3175,-0.2849,0.2362,-0.0861
9.56,0.8688,-1.7753,11.2168,-0.0827,0.5404,-0.0562
9.58,1.0059,-1.8339,10.5576,0.1348,0.5255,0.0253
9.6,1.0802,-2.0642,9.8544,0.2482,0.1659,0.0897
9.62,1.4265,-1.8671,9.2067,0.3349,-0.1956,0.0903
9.64,1.0005,-2.1988,8.7571,0.3319,-0.4303,0.108
9.66,0.9164,-2.443,8.91,0.1607,-0.3678,0.0728
9.68,1.0759,-2.3015,8.9992,0.0443,-0.0879,0.0678
9.7,0.7928,-2.3767,8.9928,-0.02,0.1187,0.0263
9.72,0.5289,-2.0841,9.1852,-0.11,0.2124,0.0008
9.74,0.5458,-2.5037,9.1158,-0.1094,0.11,0.0082
9.76,0.7585,-2.2329,9.4734,-0.0533,0.0092,-0.0267
9.78,0.8901,-2.298,9.3277,0.0017,-0.0479,-0.0057
9.8,0.9644,-2.1943,9.5922,0.0246,-0.0259,0.0112
9.82,0.7518,-1.9718,9.2182,-0.005,-0.0228,-0.0323
9.84,0.5591,-2.3394,9.1192,-0.0056,-0.0074,-0.0219
9.86,0.7538,-2.0773,9.4162,0.0341,0.0382,0.0067
9.88,0.8043,-2.2886,9.0974,-0.0032,0.0183,-0.0105
9.9,0.849,-2.3222,9.2658,0.0131,-0.0519,0.0022
9.92,0.6604,-2.3272,9.3309,0.0112,-0.0652,-0.008
9.94,0.8634,-2.2261,9.4617,0.0572,0.0182,-0.0334
9.96,0.9821,-2.4221,9.0587,0.0782,0.0395,0.0034
9.98,0.7651,-2.3179,9.3125,0.1323,0.1771,0.0005
10.0,0.8621,-2.0912,8.9912,0.1032,0.1604,-0.0172
10.02,0.9619,-2.1305,8.8002,-0.0026,-0.0046,0.0492
10.04,0.835,-2.2088,8.9194,-0.1271,-0.3281,0.0957
10.06,0.6851,-2.307,8.8102,-0.2946,-0.4875,0.1008
10.08,0.1701,-2.4624,8.7958,-0.3562,-0.4079,0.1498
10.1,0.1947,-2.3031,9.4037,-0.3647,0.0015,0.1186
10.12,0.4294,-2.6092,10.5776,-0.2181,0.4694,0.0407
10.14,1.0764,-2.3327,11.6337,0.0179,0.6835,-0.0053
10.16,1.2403,-2.6042,10.2961,0.2284,0.426,-0.0314
10.18,1.4405,-2.45,9.5475,0.3909,-0.0933,-0.1162
10.2,1.5066,-2.4822,8.8566,0.3673,-0.451,-0.1525
10.22,1.0268,-2.1599,8.6889,0.3005,-0.4727,-0.1219
10.24,0.9822,-2.1344,8.9543,0.1329,-0.2223,-0.1011
10.26,0.7256,-1.873,9.092,0.0056,0.0154,-0.0365
10.28,0.6823,-2.173,9.098,-0.0841,0.1546,-0.0185
10.3,0.7578,-2.2744,9.3696,-0.0914,0.197,0.0302
10.32,0.8206,-2.0739,9.2616,-0.0589,0.077,0.0312
10.34,0.6104,-2.0684,9.4288,-0.0431,-0.0136,-0.017
10.36,1.0121,-2.182,9.3305,-0.0078,-0.0709,-0.0133
10.38,0.9969,-2.2635,9.4175,0.0125,-0.0559,0.0049
10.4,0.9154,-2.3084,9.4258,-0.0107,-0.0313,-0.0231
10.42,0.9798,-2.2766,9.579,0.0375,-0.0118,0.0119
10.44,1.0747,-2.1116,9.5092,0.0308,-0.019,0.0258
10.46,1.0067,-2.0307,9.5702,-0.0419,0.0081,0.0302
10.48,0.9317,-2.2412,9.6578,-0.0105,0.0096,0.0236
10.5,0.9747,-2.3368,9.5548,0.0191,-0.0275,0.0113
10.52,0.923,-2.169,9.53,-0.0078,-0.0247,0.0099
10.54,1.3364,-2.0912,9.5363,0.073,0.0066,0.0255
10.56,1.087,-2.2934,9.508,0.1086,0.0429,0.0208
10.58,1.0145,-2.1694,9.0917,0.0586,0.1328,0.0287
10.6,0.9842,-2.3895,9.3892,0.0554,0.1667,0.0039
10.62,0.9634,-2.3117,9.0265,-0.0003,0.0116,-0.0367
10.64,0.7141,-2.1948,9.0345,-0.0931,-0.191,-0.0532
10.66,0.8727,-2.1246,8.909,-0.2127,-0.3935,-0.0834
10.68,0.5952,-2.1416,8.9305,-0.3302,-0.4122,-0.1403
10.7,0.655,-2.0563,9.2023,-0.3737,-0.0807,-0.0951
10.72,0.7139,-1.7816,10.4819,-0.2248,0.3689,-0.0629
10.74,0.8977,-1.778,11.1835,-0.0294,0.5668,0.0061
10.76,1.1463,-2.0841,10.7459,0.1655,0.4524,0.0489
10.78,1.1573,-2.0163,9.5833,0.2969,0.0332,0.1283
10.8,1.1825,-2.0587,9.1422,0.3356,-0.3704,0.1281
10.82,1.0971,-2.3786,9.0348,0.2732,-0.4803,0.118
10.84,1.2698,-2.0273,9.1672,0.1888,-0.2399,0.1398
10.86,1.1731,-2.2419,9.2812,0.0336,-0.0064,0.0721
10.88,0.9085,-2.3829,9.1434,-0.0559,0.1159,0.004
10.9,0.8379,-2.3534,9.3915,-0.0616,0.163,-0.0164
10.92,0.9805,-2.2167,9.405,-0.1156,0.0495,-0.0166
10.94,0.7039,-2.3318,9.4703,-0.0429,-0.0229,-0.0197
10.96,1.1127,-2.2052,9.5799,0.0099,-0.0373,-0.041
10.98,0.8813,-2.1051,9.5588,0.0078,-0.0483,-0.015
11.0,0.9646,-2.1624,9.5154,0.0174,-0.0267,0.0048
11.02,0.8932,-2.0518,9.293,0.0115,0.0008,0.0217
11.04,0.8094,-2.237,9.3143,-0.0094,-0.0228,-0.0513
11.06,0.9529,-2.2678,9.1666,-0.0008,-0.0361,0.0248
11.08,0.703,-2.2432,9.2504,-0.0062,-0.0641,-0.0112
11.1,0.8613,-2.3819,9.3745,0.0242,-0.0574,-0.007
11.12,1.0698,-2.1503,9.2586,0.0227,-0.0177,-0.0256
11.14,0.7703,-2.6395,9.3993,0.0514,0.0204,-0.0567
11.16,0.9407,-2.1229,9.2155,0.0841,0.1052,0.0088
11.18,0.9422,-2.3063,9.0921,0.13,0.1561,-0.0028
11.2,1.0787,-2.1399,8.9254,0.0294,0.0394,0.0263
11.22,1.0746,-2.1967,8.9587,-0.0752,-0.1711,0.0794
11.24,0.8025,-2.1605,8.8071,-0.2388,-0.4098,0.1013
11.26,0.6273,-2.4848,8.8618,-0.3557,-0.3895,0.1133
11.28,0.5076,-2.3004,9.4126,-0.3553,-0.0935,0.1266
11.3,0.4103,-2.5269,10.094,-0.2128,0.3274,0.087
11.32,1.1804,-2.4201,11.2585,-0.0273,0.5625,0.0017
11.34,1.1661,-2.5519,10.7125,0.204,0.4586,-0.0615
11.36,0.9995,-2.6088,9.2747,0.333,0.0583,-0.1299
11.38,1.4472,-2.2678,9.131,0.3233,-0.3132,-0.1375
11.4,1.0882,-2.3634,8.7784,0.2926,-0.405,-0.1196
11.42,0.873,-2.4104,8.8912,0.1404,-0.2847,-0.0671
11.44,0.8695,-2.4248,8.6568,-0.0202,-0.0263,-0.0583
11.46,0.7366,-2.27,9.0037,-0.1061,0.1392,-0.0279
11.48,0.8571,-2.2044,9.1063,-0.0937,0.1858,0.0017
11.5,0.6026,-2.2254,8.9371,-0.0888,0.0594,-0.0126
11.52,0.9804,-2.3862,9.2706,-0.0715,-0.0201,0.0157
11.54,1.0145,-2.3054,9.4651,0.0186,-0.0187,0.0361
11.56,1.103,-2.3589,9.3207,-0.0005,-0.0485,-0.03
11.58,0.9702,-2.2044,9.2854,-0.0031,-0.0439,-0.0351
11.6,0.8436,-2.4992,9.343,-0.0063,0.0091,-0.0015
11.62,0.9755,-2.1365,9.311,0.0125,-0.0102,0.0165
11.64,0.9768,-2.2489,9.3761,0.0123,0.0204,0.0214
11.66,0.7956,-2.2785,9.4317,-0.0301,-0.0229,-0.0365
11.68,1.0248,-2.1757,9.4937,0.0203,0.0078,0.0289
11.7,0.9509,-2.2414,9.5265,-0.0093,-0.0495,0.0445
11.72,1.0066,-2.5072,9.3943,0.0047,-0.0453,0.0108
11.74,1.0389,-2.4181,9.3691,0.0712,0.0423,0.044
11.76,1.2613,-2.3148,9.339,0.1108,0.1275,0.0122
11.78,1.067,-2.354,9.2016,0.093,0.2041,0.012
11.8,0.742,-2.4794,8.9099,0.0095,0.0459,-0.0212
11.82,0.8064,-2.2585,8.8303,-0.0737,-0.1671,-0.0518
11.84,1.0646,-2.2334,9.3301,-0.1761,-0.3814,-0.1014
11.86,0.862,-2.2342,9.2452,-0.2808,-0.4096,-0.1004
11.88,0.9716,-2.0193,9.7582,-0.3066,-0.0511,-0.1391
11.9,0.9338,-1.857,10.7652,-0.2472,0.316,-0.1012
11.92,0.311,-2.2214,10.4455,-0.1562,0.5409,-0.0229
11.94,1.499,-2.0626,10.9303,0.1814,0.5101,0.0495
11.96,1.6466,-2.0539,9.8688,0.3528,0.148,0.1186
11.98,1.429,-2.3287,8.8943,0.3671,-0.2967,0.1482
12.0,0.9615,-2.4031,8.5385,0.2745,-0.4914,0.1151
12.02,1.4422,-2.1536,9.3922,0.2162,-0.303,0.0542
12.04,1.1763,-2.4064,9.0153,0.0158,-0.0376,0.0321
12.06,1.319,-2.4196,9.1655,-0.0232,0.1441,0.0432
12.08,0.9795,-2.3881,9.1346,-0.1145,0.1758,-0.0179
12.1,1.468,-2.3299,9.5531,-0.0468,0.1,-0.0214
12.12,0.6839,-2.3527,9.1002,-0.0909,-0.0267,-0.0335
12.14,1.4076,-2.1497,9.7652,0.0052,-0.0175,0.0112
12.16,1.5618,-2.2367,9.9471,0.0736,-0.0076,-0.0195
12.18,1.2435,-2.0945,9.8572,0.0671,-0.012,0.002
12.2,1.7082,-2.1002,10.0515,0.0835,0.0411,0.0056
12.22,0.8554,-2.4202,8.8542,-0.0773,-0.0118,-0.002
12.24,1.3404,-2.1163,9.6853,0.0463,0.0268,0.019
12.26,0.9216,-2.2849,9.4931,0.0144,-0.035,-0.0307
12.28,1.2566,-2.3275,9.6629,0.0809,-0.0248,-0.0289
12.3,1.2471,-2.2104,9.4624,0.0422,0.0274,-0.0062
12.32,1.2944,-2.0526,9.4952,0.0746,0.1267,-0.0065
12.34,0.8243,-2.3792,8.9394,0.0687,0.1341,-0.0007
12.36,0.7726,-2.2701,8.8647,0.007,0.0888,0.0171
12.38,1.0144,-2.004,9.0973,-0.0388,-0.0632,0.1045
12.4,1.1661,-1.9377,9.2036,-0.1474,-0.3549,0.0715
12.42,0.6821,-2.3344,8.6785,-0.3396,-0.5008,0.1471
12.44,0.5937,-2.379,9.2084,-0.3648,-0.2915,0.1382
12.46,0.4585,-2.6678,9.6738,-0.3603,0.1245,0.1175
12.48,0.6548,-2.5919,11.0258,-0.1042,0.568,0.0671
12.5,1.4657,-2.5107,11.7071,0.1279,0.6094,-0.0123
12.52,1.3748,-2.5429,10.0662,0.2332,0.2439,-0.0964
12.54,1.3004,-2.558,8.8789,0.3496,-0.2249,-0.1423
12.56,1.202,-2.3832,8.9151,0.3572,-0.4851,-0.1157
12.58,1.1659,-2.1917,9.0036,0.234,-0.3909,-0.1147
12.6,1.009,-2.2642,9.0461,0.0515,-0.1097,-0.0544
12.62,0.9101,-1.9885,8.8652,-0.083,0.1075,-0.022
12.64,0.9793,-2.1961,9.0672,-0.0982,0.1361,0.0133
12.66,0.7587,-2.3621,9.0261,-0.1051,0.1197,0.0207
12.68,0.7779,-2.2691,9.2452,-0.0987,0.0241,0.0375
12.7,1.1661,-2.1631,9.5132,-0.0289,-0.031,0.0029
12.72,1.0014,-2.4699,9.5955,-0.0003,-0.0694,-0.0002
12.74,0.8081,-2.4369,9.4028,0.0477,-0.0224,-0.0325
12.76,1.0105,-2.497,9.1186,-0.0209,-0.0241,0.0015
12.78,1.2228,-2.3878,9.4036,-0.0005,-0.0195,-0.0079
12.8,0.9114,-2.4061,9.3694,0.0226,-0.0409,0.0237
12.82,0.8525,-2.4977,9.0296,-0.0108,-0.0959,-0.0103
12.84,1.3314,-2.3642,9.6687,0.0531,0.0053,-0.0197
12.86,1.1485,-2.2705,9.2567,0.0563,0.0162,0.0394
12.88,0.8901,-2.4599,9.0718,0.078,0.1405,0.0131
12.9,0.911,-2.4492,8.9503,0.0988,0.1889,-0.0051
12.92,0.7904,-2.5408,8.974,0.0209,0.0622,-0.0435
12.94,0.8836,-2.4349,8.8108,-0.0684,-0.1815,-0.0722
12.96,1.0166,-2.5036,8.9636,-0.2215,-0.3895,-0.0988
12.98,0.6845,-2.071,8.6622,-0.3256,-0.4555,-0.1351
13.0,0.6286,-2.1665,9.1177,-0.3525,-0.1243,-0.0864
13.02,0.48,-2.145,10.304,-0.2567,0.3374,-0.1086
13.04,0.9468,-1.9327,11.2776,-0.0946,0.6163,-0.0403
13.06,1.1437,-2.4212,10.6037,0.1706,0.5493,0.043
13.08,1.7043,-2.281,9.6645,0.336,0.0836,0.1261
13.1,1.5637,-2.2669,8.7639,0.3655,-0.3373,0.1357
13.12,1.149,-2.2513,8.8938,0.3264,-0.4622,0.1535
13.14,0.8432,-2.3965,8.7042,0.1365,-0.2981,0.0841
13.16,0.9295,-2.5541,8.917,0.0001,-0.0465,0.025
13.18,0.559,-2.5663,8.6481,-0.096,0.1459,0.0118
13.2,0.922,-2.2821,9.2224,-0.0909,0.1791,0.0131
13.22,0.9032,-2.5199,9.0018,-0.0858,0.0934,-0.0223
13.24,0.9655,-2.4292,9.3323,-0.0284,0.0062,0.0114
13.26,0.8672,-2.3761,9.2322,-0.0075,-0.0317,-0.0111
13.28,0.9952,-2.2249,9.4379,0.013,-0.0207,-0.0122
13.3,0.8844,-2.2279,9.3483,-0.0134,-0.0023,0.0128
13.32,0.9866,-2.4478,9.3442,0.0227,0.0096,-0.023
13.34,1.0323,-2.4747,9.2543,0.0,-0.014,0.0373
13.36,0.929,-2.2835,9.3659,-0.0056,-0.0244,-0.0076
13.38,1.113,-2.1938,9.4894,0.0338,-0.0374,-0.0232
13.4,1.2569,-2.3315,9.3151,0.0618,0.0026,-0.0269
13.42,1.0498,-2.363,9.4476,0.095,0.0755,-0.0112
13.44,1.0637,-2.18,9.1922,0.1208,0.1252,-0.0014
13.46,1.1615,-2.2152,9.0382,0.0898,0.0953,0.0313
13.48,1.0109,-2.2814,8.6814,-0.0566,-0.1363,0.0195
13.5,0.9522,-2.2336,8.9666,-0.1622,-0.3141,0.0831
13.52,0.6239,-2.5543,8.8065,-0.3169,-0.4389,0.1422
13.54,0.5015,-2.3809,8.9063,-0.3508,-0.258,0.1126
13.56,0.5792,-2.4104,10.175,-0.3263,0.1332,0.1014
13.58,0.8872,-2.7287,10.8692,-0.1417,0.489,0.0323
13.6,0.9812,-2.5281,10.8554,0.0678,0.5299,-0.0352
13.62,1.4823,-2.4734,10.2709,0.2451,0.2572,-0.1207
13.64,1.6474,-2.3977,9.3212,0.3285,-0.193,-0.1375
13.66,1.4585,-2.4757,9.174,0.318,-0.4175,-0.1041
13.68,0.9733,-2.316,8.9327,0.1631,-0.3665,-0.0841
13.7,1.0378,-2.3209,9.114,0.0659,-0.1142,-0.0609
13.72,1.0153,-2.2068,9.2424,-0.0472,0.1159,-0.0285
13.74,0.8116,-2.1854,9.1555,-0.0778,0.1418,-0.021
13.76,0.9532,-2.2291,9.5,-0.0399,0.1185,0.0446
13.78,0.8822,-2.2882,9.4426,-0.0642,-0.0011,0.003
13.8,1.311,-2.3015,9.5038,-0.0245,-0.0802,0.0131
13.82,1.1113,-2.0265,9.9117,0.0138,-0.005,0.0492
13.84,1.4023,-2.0066,9.7449,0.012,-0.0176,0.0035
13.86,0.9279,-2.4248,9.2339,-0.0091,-0.0541,0.0129
13.88,0.8627,-2.4619,9.3381,0.0189,-0.0355,-0.0236
13.9,0.8409,-2.3244,9.3188,-0.0193,0.0201,0.0119
13.92,1.0622,-2.2956,9.5613,0.0317,-0.0308,0.0118
13.94,1.2721,-2.2461,9.5877,0.0318,-0.0467,0.0576
13.96,0.9266,-2.2251,9.4418,0.0301,-0.0543,0.0266
13.98,1.4515,-2.3909,9.4104,0.0788,-0.0327,0.0114
14.0,1.2045,-2.3193,9.3448,0.0728,0.0995,0.0109
14.02,1.2238,-2.3377,9.2087,0.1435,0.1617,-0.003
14.04,1.0372,-2.3191,9.1245,0.0912,0.1441,-0.0093
14.06,0.9469,-2.4111,9.0639,0.0135,-0.0125,-0.0353
14.08,1.1289,-2.2335,9.0243,-0.103,-0.2688,-0.1048
14.1,0.7757,-2.0995,8.7461,-0.2856,-0.4899,-0.1501
14.12,0.4945,-2.3096,9.1105,-0.3788,-0.316,-0.1523
14.14,0.5228,-2.0783,9.8494,-0.3788,0.0788,-0.15
14.16,0.8259,-1.9008,11.4321,-0.152,0.4953,-0.0454
14.18,0.8844,-2.1656,11.1264,-0.0056,0.5894,-0.0132
14.2,1.6619,-2.1208,10.544,0.3144,0.3379,0.0815
14.22,1.3893,-2.2327,9.417,0.4009,-0.1468,0.1378
14.24,1.2114,-2.0827,8.6826,0.3706,-0.4463,0.1349
14.26,1.1575,-2.2879,8.6195,0.2011,-0.4314,0.1071
14.28,0.9167,-2.4221,8.8129,0.0645,-0.213,0.1046
14.3,1.039,-2.2282,8.8973,0.0336,0.0599,0.058
14.32,0.8034,-2.7288,9.0368,-0.1438,0.1498,-0.0336
14.34,0.9327,-2.3282,9.0866,-0.0835,0.1131,-0.0238
14.36,0.7284,-2.1258,9.0761,-0.0803,0.0437,-0.0288
14.38,1.0975,-2.3126,9.3764,-0.0253,-0.0166,-0.0089
14.4,0.9222,-2.3745,9.5087,0.012,-0.0821,-0.0047
14.42,0.6942,-2.2987,9.2715,0.0233,-0.0015,-0.0316
14.44,0.9912,-2.4921,9.2551,0.0127,-0.0589,-0.0352
14.46,0.9154,-2.3923,9.1523,0.0147,-0.0013,0.0003
14.48,0.9802,-2.3436,9.5463,0.0295,-0.001,0.0257
14.5,0.8047,-2.1577,9.3225,-0.0136,-0.0595,0.0048
14.52,0.5955,-2.3091,9.2108,-0.0261,-0.0921,-0.0413
14.54,1.0688,-2.4475,9.3628,-0.0173,-0.0574,-0.0283
14.56,1.0932,-2.1866,9.4245,0.0456,0.0132,-0.006
14.58,1.2677,-2.1135,9.178,0.105,0.107,0.0031
14.6,0.857,-2.4549,9.2216,0.0997,0.157,-0.001
14.62,1.013,-2.2373,9.1465,0.0511,0.0898,0.0142
14.64,0.9153,-2.2937,8.8527,-0.0347,-0.0656,0.0745
14.66,0.8382,-2.5056,8.7646,-0.1177,-0.3154,0.068
14.68,0.8608,-2.2598,8.7759,-0.2462,-0.3864,0.1223
14.7,0.5667,-2.5551,9.0714,-0.3128,-0.2507,0.1613
14.72,0.5132,-2.6271,9.6608,-0.272,0.1483,0.0886
14.74,0.7201,-2.4479,11.1304,-0.0991,0.4774,0.047
14.76,0.9079,-2.7783,10.9092,0.0703,0.5123,-0.0161
14.78,1.2126,-2.6979,10.0062,0.2439,0.2339,-0.114
14.8,1.1782,-2.3918,8.9497,0.3565,-0.1449,-0.1439
14.82,0.9848,-2.3157,8.8791,0.296,-0.3976,-0.0862
14.84,1.057,-2.316,8.7471,0.172,-0.3895,-0.1561
14.86,0.9428,-1.9926,8.6585,0.0705,-0.1605,-0.0866
14.88,1.051,-2.3421,8.8952,-0.0074,0.0812,-0.0214
14.9,0.713,-2.1246,9.0059,-0.065,0.1299,0.0131
14.92,0.7191,-2.2022,9.2769,-0.0848,0.1062,0.0102
14.94,0.8937,-2.3315,9.2078,-0.0901,0.0141,0.006
14.96,1.0002,-2.1513,9.5567,-0.0133,-0.0221,0.0177
14.98,0.9537,-2.3916,9.6658,0.0476,-0.0178,0.0172
15.0,0.8842,-2.4694,9.4924,-0.0162,-0.0246,0.0133
15.02,0.9606,-2.0382,9.5284,0.0441,0.0016,0.019
15.04,1.1533,-2.4487,9.3605,-0.0177,-0.0016,-0.0222
15.06,1.1776,-2.4212,9.4183,-0.0157,-0.0337,0.007
15.08,0.7377,-2.2331,9.5544,0.0376,-0.0527,0.0096
15.1,0.9235,-2.3805,9.5744,0.0348,-0.0171,0.0191
15.12,0.9817,-2.619,9.2048,0.0776,0.0763,0.0128
15.14,1.0068,-2.5587,9.3344,0.1016,0.135,0.0004
15.16,1.079,-2.3416,9.1341,0.0455,0.1368,-0.0272
15.18,1.0853,-2.7005,8.9662,0.0131,-0.0286,-0.0655
15.2,0.9983,-2.3478,9.012,-0.1215,-0.2439,-0.0465
15.22,0.9805,-2.3263,8.6618,-0.2582,-0.4566,-0.119
15.24,0.7155,-2.1111,8.9834,-0.3359,-0.3494,-0.1245
15.26,0.6712,-2.0028,9.9642,-0.3161,0.0171,-0.0917
15.28,1.0483,-1.8001,11.1406,-0.1768,0.3843,-0.0871
15.3,0.7368,-2.016,11.232,0.0017,0.555,-0.0059
15.32,1.4933,-2.0846,10.7834,0.2222,0.3704,0.0591
15.34,1.7486,-2.038,10.1188,0.3466,-0.0408,0.1213
15.36,1.6151,-2.192,9.0078,0.3238,-0.3941,0.1216
15.38,1.343,-2.2922,9.0797,0.2725,-0.4071,0.1286
15.4,1.0604,-2.3954,8.9536,0.0856,-0.2298,0.1104
15.42,0.9347,-2.5929,8.8411,-0.042,-0.0015,0.0071
15.44,0.9,-2.4249,9.0844,-0.0906,0.1387,0.0169
15.46,1.0614,-2.3156,9.2394,-0.0752,0.1312,-0.0538
15.48,0.9574,-2.3962,9.4483,-0.0942,0.0449,0.0005
15.5,0.851,-2.3026,9.415,-0.0407,-0.0155,-0.017
15.52,1.0172,-2.4627,9.664,0.0023,-0.0464,-0.0201
15.54,1.2188,-2.4202,9.8223,0.0414,-0.0192,-0.0315
15.56,1.071,-2.2975,9.307,0.001,0.009,-0.0279
15.58,1.224,-2.1746,9.6526,0.0073,0.0262,0.0008
15.6,1.084,-2.4672,9.5735,0.0242,-0.0294,-0.0267
15.62,0.9582,-2.4201,9.6402,-0.012,-0.0651,-0.01
15.64,1.0739,-2.2419,9.0917,0.018,-0.0436,-0.0423
15.66,1.2073,-2.3038,9.1087,0.0303,0.0547,-0.0357
15.68,1.3651,-1.9837,9.483,0.0943,0.1187,-0.0213
15.7,1.2704,-2.1686,9.3523,0.1219,0.1808,0.0152
15.72,1.1532,-2.2191,8.8529,-0.0055,-0.0055,0.0244
15.74,0.8118,-2.2734,8.8008,-0.1025,-0.2493,0.0814
15.76,1.0501,-2.263,8.926,-0.2518,-0.3762,0.1054
15.78,0.4841,-2.5729,8.8953,-0.336,-0.3762,0.1183
15.8,0.4844,-2.5551,9.519,-0.3462,-0.0105,0.107
15.82,0.6541,-2.8324,10.7284,-0.206,0.4021,0.058
15.84,0.7471,-2.6481,11.3561,-0.0149,0.5846,-0.0463
15.86,1.4947,-2.4198,11.1254,0.185,0.4133,-0.0637
15.88,1.4089,-2.6968,9.5402,0.3343,0.0233,-0.1184
15.9,1.6384,-2.2071,9.1943,0.3705,-0.3477,-0.1368
15.92,1.0292,-2.4722,8.7679,0.2383,-0.4999,-0.1217
15.94,1.2029,-2.0512,8.7298,0.1429,-0.2182,-0.0647
15.96,0.826,-2.123,8.8044,-0.0013,-0.0387,-0.0176
15.98,0.8628,-2.2856,8.9981,-0.0576,0.1586,-0.0084
16.0,1.0609,-2.3991,9.3171,-0.0797,0.1637,0.0355
16.02,0.9464,-2.2681,9.2259,-0.0565,0.0394,0.0435
16.04,1.1859,-2.179,9.2622,-0.0099,-0.029,0.0247
16.06,0.9184,-2.1794,9.2984,-0.0296,-0.0494,-0.0011
16.08,0.8971,-2.3594,9.3655,-0.0313,-0.027,0.0059
16.1,0.8972,-2.5971,9.3657,0.0134,0.0007,0.0247
16.12,1.247,-2.2363,9.3294,0.0183,0.0218,-0.0088
16.14,1.0742,-2.426,9.0712,0.0095,-0.0138,-0.0034
16.16,1.0405,-2.5105,9.4034,-0.03,-0.0235,0.0002
16.18,0.84,-2.6348,9.3127,-0.0153,-0.0139,0.0257
16.2,1.0439,-2.3386,9.5668,0.0222,-0.0572,-0.0074
16.22,1.045,-2.19,9.3425,0.0532,-0.0253,0.0159
16.24,0.9092,-2.472,9.1967,0.0925,0.0539,0.0423
16.26,1.0207,-2.5467,8.9771,0.1013,0.1335,0.0359
16.28,0.8046,-2.4562,8.9304,0.1122,0.1869,0.003
16.3,0.9988,-2.4249,9.0713,0.0588,0.0605,0.0038
16.32,0.8377,-2.4939,8.7655,-0.0575,-0.1682,-0.079
16.34,0.3526,-2.6513,8.2482,-0.3008,-0.4617,-0.1192
16.36,0.4453,-2.2134,8.726,-0.3517,-0.4311,-0.1432
16.38,0.004,-2.3717,8.9241,-0.406,-0.1215,-0.1287
16.4,0.5755,-2.1435,10.5153,-0.2983,0.3303,-0.0962
16.42,0.6712,-2.1687,11.4058,-0.0515,0.6351,-0.0332
16.44,1.3111,-2.3184,11.1335,0.1734,0.5347,0.0275
16.46,1.674,-1.9584,10.1272,0.3373,0.1121,0.1366
16.48,1.5341,-2.2944,8.8985,0.3747,-0.3795,0.1532
16.5,1.0371,-2.6324,8.7418,0.3293,-0.5048,0.1173
16.52,1.1784,-2.4815,8.8339,0.1653,-0.3256,0.1183
16.54,1.0111,-2.4281,8.8514,0.0256,-0.0017,0.037
16.56,0.8142,-2.4742,8.8188,-0.1105,0.1389,0.0162
16.58,0.6588,-2.6346,8.9162,-0.1076,0.1784,-0.0257
16.6,0.9839,-2.4793,9.2712,-0.0497,0.1261,-0.0254
16.62,0.961,-2.3756,9.4037,0.0166,0.0341,-0.0336
16.64,0.8623,-2.2471,9.4386,0.0032,-0.0378,-0.0073
16.66,0.9385,-2.107,9.4281,-0.0292,-0.0152,-0.0076
16.68,0.9224,-2.3631,9.3927,-0.0156,-0.006,-0.0029
16.7,0.8257,-2.3642,9.1878,0.0079,-0.0296,-0.0035
16.72,0.9263,-2.2359,9.4684,-0.0144,-0.0436,-0.0005
16.74,0.8281,-2.4783,9.359,0.0049,-0.0024,-0.0126
16.76,0.9783,-2.3616,9.4004,0.0383,-0.0435,-0.0041
16.78,1.1137,-2.2954,9.3919,0.0729,0.0643,-0.0271
16.8,1.2041,-2.3052,9.4229,0.1508,0.1617,-0.0166
16.82,1.1087,-2.1451,9.0783,0.1277,0.1962,0.0275
16.84,0.9776,-2.2068,9.0858,0.0459,0.0431,0.0274
16.86,0.8536,-2.32,8.8339,-0.094,-0.2439,0.0696
16.88,0.7549,-2.2981,8.8472,-0.2258,-0.4686,0.162
16.9,0.6118,-2.492,8.9166,-0.3447,-0.4179,0.1363
16.92,0.0001,-2.6558,9.5034,-0.374,-0.0834,0.1224
16.94,0.286,-2.8569,10.7469,-0.2199,0.4417,0.0848
16.96,0.9593,-2.7376,11.8962,-0.015,0.6937,-0.0133
16.98,1.8888,-2.6163,11.5896,0.2583,0.4961,-0.0793
17.0,1.5053,-2.5912,9.7204,0.3306,0.0071,-0.1507
17.02,1.5733,-2.4944,9.0334,0.3827,-0.3467,-0.134
17.04,1.0623,-2.0847,8.7239,0.2612,-0.5014,-0.1578
17.06,1.2244,-2.2316,8.7108,0.1534,-0.2744,-0.0598
17.08,1.1898,-2.1537,8.7961,-0.0236,-0.0034,-0.0386
17.1,0.8312,-2.2226,8.8799,-0.1255,0.1856,-0.0275
17.12,0.9497,-1.9276,9.4269,-0.108,0.146,0.0251
17.14,1.1397,-2.4826,9.3567,-0.0728,0.0912,0.0275
17.16,1.3207,-2.3508,9.5861,-0.0635,-0.0265,-0.0123
17.18,1.0515,-2.3009,9.8666,0.0074,-0.058,0.0123
17.2,0.9164,-2.3428,9.5993,-0.0116,-0.0541,-0.0072
17.22,0.8338,-2.2828,9.5848,0.0144,-0.0183,0.0212
17.24,1.0201,-2.3517,9.3339,-0.0159,-0.0133,0.0034
17.26,0.8847,-2.3413,9.3854,-0.0116,0.0066,-0.0005
17.28,0.7665,-2.2672,9.6768,-0.046,-0.0512,0.0066
17.3,1.3441,-2.3828,9.6754,0.0264,-0.0357,0.0573
17.32,1.2991,-2.3317,9.1781,0.0185,-0.0234,0.0321
17.34,1.3602,-2.1262,9.5028,0.0965,0.0772,0.0365
17.36,0.8421,-2.4559,9.2949,0.1125,0.1371,0.0241
17.38,1.2167,-2.3669,9.0841,0.0737,0.1563,0.0049
17.4,1.1523,-2.4196,9.0224,0.0145,0.0277,-0.0336
17.42,1.0264,-2.5948,8.765,-0.0899,-0.2114,-0.0899
17.44,0.8556,-2.3103,8.9946,-0.2497,-0.4141,-0.106
17.46,0.2834,-2.3675,8.9304,-0.3458,-0.3951,-0.1132
17.48,0.4653,-2.25,9.5035,-0.3557,-0.0325,-0.1204
17.5,0.6624,-2.0035,10.8175,-0.1702,0.3745,-0.0805
17.52,1.1462,-1.9133,11.5393,0.0063,0.5848,-0.0095
17.54,1.2285,-2.2657,10.5429,0.1777,0.4008,0.0647
17.56,1.4499,-2.2248,9.6274,0.3102,0.0234,0.1418
17.58,1.4046,-2.2935,8.8883,0.3297,-0.337,0.141
17.6,1.0432,-2.5412,8.6035,0.2336,-0.4089,0.1159
17.62,1.0923,-2.4797,8.5462,0.1186,-0.2483,0.063
17.64,1.0498,-2.6382,8.9755,-0.0052,0.0228,0.0531
17.66,0.9759,-2.5307,9.0538,-0.0619,0.167,0.0067
17.68,0.7319,-2.3492,9.0195,-0.102,0.1579,0.0126
17.7,0.7689,-2.3942,9.1838,-0.0756,0.0887,-0.0192
17.72,0.7082,-2.4342,9.409,-0.0325,0.0168,-0.0265
17.74,0.82,-2.4319,9.3083,-0.0462,-0.0527,-0.0171
17.76,0.9178,-2.2453,9.6338,0.0036,-0.0402,-0.0049
17.78,0.8223,-2.2396,9.3203,-0.0189,-0.0166,-0.003
17.8,0.889,-2.1806,9.1316,-0.0166,0.011,-0.025
17.82,0.674,-2.2899,9.2015,-0.0412,-0.0008,0.0232
17.84,1.0136,-2.3968,9.5952,0.0466,0.0207,0.0097
17.86,0.8619,-2.5614,9.5294,0.0167,-0.016,0.0377
17.88,0.7422,-2.5032,9.466,0.0678,-0.008,0.0081
17.9,0.9784,-2.2828,9.0972,0.0369,-0.0167,-0.0314
17.92,1.2254,-2.4146,9.1731,0.0918,0.0703,0.0006
17.94,1.0781,-2.4929,8.7338,0.0853,0.1922,-0.0382
17.96,0.9558,-1.9415,8.8876,0.0808,0.1752,0.0253
17.98,0.5114,-2.3083,8.498,-0.0599,-0.0554,0.0477
18.0,0.7829,-2.2971,8.6022,-0.22,-0.3822,0.1272
18.02,0.6969,-2.5035,8.5781,-0.3064,-0.5084,0.147
18.04,0.5754,-2.5884,8.819,-0.4068,-0.328,0.1582
18.06,0.0208,-2.6386,9.7196,-0.3684,0.1566,0.1255
18.08,0.7839,-2.7416,11.7924,-0.1333,0.6246,0.0858
18.1,1.1412,-2.6993,11.9002,0.0574,0.6506,-0.044
18.12,1.41,-3.0651,10.3055,0.2578,0.3171,-0.1347
18.14,1.5772,-2.2612,9.0107,0.441,-0.1283,-0.1267
18.16,1.3481,-2.3217,8.5996,0.4157,-0.4929,-0.1702
18.18,1.1335,-2.2568,8.7015,0.2235,-0.4297,-0.1225
18.2,0.9689,-2.1752,8.7546,0.0893,-0.1565,-0.0691
18.22,0.6337,-2.1802,8.8464,-0.0699,0.1089,-0.024
18.24,0.8054,-2.3184,9.0638,-0.1367,0.171,0.0076
18.26,1.0221,-2.0057,9.2634,-0.0811,0.1839,0.0371
18.28,0.9436,-2.391,9.2433,-0.0759,0.0541,0.0343
18.3,0.7727,-2.2662,9.7438,-0.0423,-0.0179,0.0382
18.32,0.7742,-2.3315,9.4913,-0.0264,-0.0614,0.0133
18.34,0.9225,-2.0308,9.2562,-0.0436,-0.0153,0.0161
18.36,0.9305,-2.2668,9.4783,0.0293,-0.0095,-0.007
18.38,1.1095,-2.2785,9.6516,0.0185,0.014,-0.0228
18.4,0.746,-2.3011,9.5516,0.0117,-0.0369,0.0226
18.42,1.0052,-2.278,9.5106,0.0448,-0.0337,0.0105
18.44,1.4234,-2.3528,9.5468,0.0865,0.0482,0.0347
18.46,0.7887,-2.563,8.9797,0.0554,0.1063,0.0276
18.48,0.8358,-2.5192,8.8736,0.1001,0.1678,0.0274
18.5,0.8899,-2.482,8.9475,0.0653,0.1325,-0.0107
18.52,1.0907,-2.6924,8.6956,-0.0144,-0.0794,-0.0591
18.54,0.8155,-2.3595,8.8562,-0.1643,-0.3266,-0.0651
18.56,0.8612,-2.261,8.9741,-0.2974,-0.4325,-0.1491
18.58,0.5662,-2.0419,9.2027,-0.3721,-0.2646,-0.145
18.6,-0.1541,-2.1083,9.6967,-0.3656,0.1108,-0.1317
18.62,0.1742,-2.2389,10.9866,-0.2253,0.506,-0.0604
18.64,1.0591,-2.075,11.4365,0.0528,0.5948,0.024
18.66,1.5285,-2.1312,10.1523,0.2761,0.3066,0.1103
18.68,1.4921,-2.1942,9.1191,0.3497,-0.1913,0.0869
18.7,1.5041,-2.4137,9.1303,0.3406,-0.4524,0.1297
18.72,0.9907,-2.4079,8.5182,0.1526,-0.4197,0.0882
18.74,0.7421,-2.5978,8.8566,0.0418,-0.1531,0.0539
18.76,1.0784,-2.4755,8.9244,-0.0621,0.0589,0.0421
18.78,0.8217,-2.5452,9.516,-0.0837,0.1882,0.0317
18.8,0.4029,-2.7651,8.2815,-0.2183,0.069,-0.035
18.82,0.9569,-2.287,9.273,-0.075,0.0324,-0.0424
18.84,0.9721,-2.3788,9.5871,-0.0363,-0.0369,0.0137
18.86,1.1965,-2.2694,9.5665,-0.0398,-0.023,-0.0204
18.88,1.0528,-2.3663,9.3082,-0.0132,-0.0321,0.0013
18.9,1.6093,-1.8195,10.0797,0.0627,0.0632,-0.0331
18.92,1.4643,-2.3188,9.9422,0.0304,0.028,-0.0365
18.94,1.3289,-2.1857,10.2639,0.0251,0.0,0.0027
18.96,1.4677,-2.2532,10.1208,0.0497,-0.0181,-0.0296
18.98,1.433,-1.9452,9.9316,0.0769,0.0427,-0.0448
19.0,1.3167,-1.9533,9.6799,0.1137,0.1374,0.0168
19.02,0.8834,-2.4695,8.8167,0.0381,0.1375,-0.0291
19.04,1.136,-2.168,9.2373,0.0538,0.1148,0.0205
19.06,0.9144,-2.0009,9.0289,-0.0016,0.0003,0.0546
19.08,0.8661,-2.3947,8.77,-0.1312,-0.2991,0.0767
19.1,0.5709,-2.5257,8.937,-0.2311,-0.4005,0.1392
19.12,0.5488,-2.5882,9.1189,-0.3521,-0.2988,0.0953
19.14,0.4309,-2.6316,9.9498,-0.3257,0.0748,0.0861
19.16,0.9606,-2.4804,11.1336,-0.1355,0.4616,0.0599
19.18,0.6663,-2.8202,11.1543,0.0243,0.5704,-0.0447
19.2,1.3067,-2.6767,10.6332,0.2105,0.2883,-0.0791
19.22,1.4403,-2.7071,9.1303,0.313,-0.091,-0.1164
19.24,1.4167,-2.5166,8.7842,0.3185,-0.3819,-0.1435
19.26,1.0467,-2.2777,8.8969,0.2116,-0.3422,-0.0664
19.28,0.852,-2.3424,8.8648,0.0474,-0.1599,-0.0844
19.3,0.87,-2.382,8.7631,-0.0436,0.0295,-0.0496
19.32,0.859,-2.2947,8.7225,-0.0994,0.1692,-0.0066
19.34,0.6152,-2.3184,9.232,-0.0809,0.0824,0.0318
19.36,0.9132,-2.23,9.1632,-0.0622,0.0057,0.0207
19.38,0.7094,-2.404,9.5316,-0.0318,-0.0006,0.0208
19.4,0.5495,-2.1985,9.3841,-0.0013,-0.0497,-0.0135
19.42,0.7883,-2.4041,9.3271,-0.0345,-0.028,0.0009
19.44,0.5982,-2.3816,9.0874,-0.0306,-0.0651,0.004
19.46,0.6207,-2.5764,9.0954,-0.0413,-0.0245,-0.032
19.48,0.9637,-2.3483,9.4078,0.0647,-0.043,0.0078
19.5,1.1555,-2.3313,9.2858,0.1035,0.049,0.0302
19.52,0.7404,-2.7142,9.1042,0.0841,0.1542,0.0092
19.54,1.1459,-2.6673,8.7954,0.1061,0.1983,-0.0027
19.56,0.6721,-2.623,8.8599,0.0403,0.0869,-0.059
19.58,1.0892,-2.7034,8.7462,-0.063,-0.1618,-0.08
19.6,0.6187,-2.4318,8.6823,-0.2494,-0.4477,-0.1009
19.62,0.2721,-2.4272,8.6342,-0.3518,-0.4532,-0.1447
19.64,0.2269,-2.1932,9.1297,-0.4377,-0.1837,-0.1712
19.66,0.4791,-1.7888,10.6803,-0.3293,0.3281,-0.1072
19.68,1.0339,-1.7192,12.1477,-0.0783,0.7022,-0.019
19.7,1.1846,-2.3067,11.2767,0.1843,0.6132,0.044
19.72,1.4149,-2.4008,9.8025,0.3401,0.1042,0.0898
19.74,1.1792,-2.2922,8.7662,0.3416,-0.313,0.1406
19.76,1.1473,-2.2364,8.516,0.2788,-0.4948,0.1238
19.78,1.4336,-2.2473,8.6742,0.1758,-0.2943,0.0877
19.8,0.85,-2.6075,8.6417,0.0254,-0.0314,0.0617
19.82,0.8623,-2.5432,9.0287,-0.0856,0.1685,0.049
19.84,0.891,-2.5508,9.1675,-0.1514,0.1825,-0.0185
19.86,0.9781,-2.2743,9.1091,-0.0945,0.1041,-0.0543
19.88,0.7385,-2.3079,9.4103,-0.0563,0.0385,-0.0293
19.9,0.8561,-2.6975,9.3088,-0.0251,-0.0503,0.004
19.92,0.8202,-2.5155,9.5033,0.0152,-0.0424,-0.0414
19.94,0.8914,-2.4213,9.4354,0.0336,-0.0129,0.029
19.96,0.8894,-2.2594,9.5275,0.0079,0.0352,0.0067
19.98,0.7745,-2.5404,9.5339,0.0054,0.0026,0.0327
20.0,0.993,-2.1742,9.4971,0.0057,-0.0105,-0.0145
20.02,0.9061,-2.4705,9.3555,-0.0124,-0.0477,-0.0279
20.04,1.2186,-2.3184,9.4577,-0.0037,-0.0444,-0.0132
20.06,0.9809,-2.374,9.3218,0.0649,0.0203,-0.0245
20.08,1.0612,-2.3371,9.4333,0.0957,0.1057,-0.0253
20.1,1.0782,-2.234,9.2493,0.1141,0.1629,0.002
20.12,0.963,-1.9492,9.1549,0.0665,0.134,0.0116
20.14,0.9517,-2.2238,8.7711,-0.0713,-0.1465,0.0693
20.16,0.9233,-2.1414,8.974,-0.2191,-0.3776,0.0807
20.18,0.6589,-2.3089,8.8462,-0.3138,-0.4238,0.0898
20.2,0.3123,-2.7182,9.2695,-0.3679,-0.1957,0.1126
20.22,0.5284,-2.7011,10.2557,-0.2725,0.2292,0.0831
20.24,0.9138,-2.8046,11.5182,-0.0811,0.5649,0.0284
20.26,1.5307,-2.7204,11.8109,0.0987,0.55,-0.056
20.28,1.5211,-2.5566,10.2919,0.256,0.1423,-0.0971
20.3,1.6682,-2.4516,9.605,0.381,-0.2131,-0.1262
20.32,1.5415,-2.4821,8.8206,0.3152,-0.4542,-0.1518
20.34,1.2811,-1.927,9.089,0.1667,-0.3401,-0.1116
20.36,1.3163,-2.1272,9.0548,0.0529,-0.1029,-0.0336
20.38,0.8341,-2.0873,8.9406,-0.1026,0.0739,-0.0228
20.4,0.9257,-2.2506,9.2357,-0.116,0.1279,0.0162
20.42,0.8925,-2.2828,9.5495,-0.0996,0.1184,0.0075
20.44,0.8014,-2.2214,9.4849,-0.0633,0.0412,0.0159
20.46,1.0076,-2.2582,9.6706,-0.029,-0.0265,0.0347
20.48,1.2268,-2.2748,9.9005,0.046,0.0101,0.0062
20.5,0.7332,-2.3644,9.5066,-0.0386,-0.0241,0.0135
20.52,0.9707,-2.2639,9.5395,0.0019,-0.0183,0.0054
20.54,1.1009,-2.4151,9.6559,0.0176,-0.0233,0.0426
20.56,1.1412,-2.4021,9.5786,0.0258,-0.0022,0.0239
20.58,0.842,-2.1788,9.2493,0.032,-0.0063,0.0154
20.6,1.1295,-2.1626,9.2695,0.0537,0.0959,0.0214
20.62,1.1203,-2.5741,9.4589,0.1331,0.206,0.0366
20.64,0.9872,-2.4249,8.964,0.091,0.1263,-0.0075
20.66,0.9438,-2.5739,8.8414,-0.0293,-0.0583,-0.0466
20.68,0.7286,-2.4189,8.6607,-0.1687,-0.3373,-0.0734
20.7,0.6272,-1.9278,8.886,-0.2945,-0.4608,-0.1234
20.72,0.4587,-2.1294,8.8788,-0.399,-0.3273,-0.1468
20.74,0.1837,-2.0536,9.7556,-0.323,0.0925,-0.1058
20.76,0.2891,-2.2336,10.9843,-0.1744,0.5313,-0.0588
20.78,1.1346,-1.9017,11.6547,0.0336,0.6412,0.015
20.8,1.7082,-2.0544,10.8364,0.2695,0.316,0.0993
20.82,1.8108,-2.0515,9.4096,0.4025,-0.1211,0.1512
20.84,0.9845,-2.471,8.7507,0.3421,-0.4542,0.1468
20.86,1.1758,-2.4785,8.8376,0.2347,-0.4132,0.1083
20.88,1.0578,-2.5743,8.7896,0.067,-0.178,0.095
20.9,0.8364,-2.4761,8.6378,-0.0433,0.0846,0.01
20.92,0.7943,-2.5899,8.9444,-0.1241,0.1888,-0.005
20.94,0.9091,-2.5753,9.3546,-0.0854,0.2104,-0.0214
20.96,0.9422,-2.3587,9.5134,-0.0447,0.0846,0.0178
20.98,0.9376,-2.479,9.6845,-0.0221,0.016,-0.0238
21.0,0.8218,-2.4586,9.3167,-0.0507,-0.0489,-0.033
21.02,0.9645,-2.2608,9.5044,-0.0033,0.005,-0.0488
21.04,0.9064,-2.2411,9.2353,-0.001,-0.006,-0.0077
21.06,0.7905,-2.4308,9.1577,0.0238,-0.0319,-0.0273
21.08,0.9095,-2.2406,9.4904,0.0033,0.0244,0.0246
21.1,0.7629,-2.4145,9.3265,0.0157,-0.0323,-0.041
21.12,0.9457,-2.4531,9.3975,0.0628,-0.008,-0.0013
21.14,0.7616,-2.4844,9.0687,0.0328,0.0832,-0.04
21.16,1.058,-2.19,9.3396,0.1053,0.1811,-0.0095
21.18,0.9305,-2.3705,9.0693,0.0902,0.1124,0.0626
21.2,0.761,-2.2425,8.9204,-0.0177,0.0021,0.0608
21.22,0.714,-2.3472,8.8013,-0.0958,-0.2197,0.0981
21.24,0.5661,-2.3421,8.5672,-0.2792,-0.4115,0.0948
21.26,0.534,-2.581,8.5766,-0.328,-0.2839,0.1272
21.28,0.2095,-2.8844,9.5773,-0.2985,0.0711,0.1338
21.3,0.5333,-2.6968,10.6936,-0.1552,0.433,0.0392
21.32,1.1942,-2.4761,11.6678,0.0284,0.5538,0.0333
21.34,1.0606,-2.7565,10.1831,0.1945,0.2697,-0.1212
21.36,1.2533,-2.4828,9.3431,0.3374,-0.092,-0.0976
21.38,1.369,-2.3415,8.8926,0.2893,-0.3425,-0.1416
21.4,1.1101,-2.3053,8.9772,0.2005,-0.3493,-0.1006
21.42,1.2307,-2.1989,8.9849,0.0991,-0.1562,-0.0592
21.44,0.8136,-2.2577,9.0851,-0.0311,0.0749,-0.0125
21.46,0.8583,-2.0239,9.1888,-0.0537,0.1574,0.0143
21.48,0.7686,-2.1573,9.14,-0.099,0.1148,0.0048
21.5,0.9658,-2.3175,9.5451,-0.0805,0.0666,0.0138
21.52,1.0217,-2.3223,9.4792,-0.0332,-0.0031,-0.0057
21.54,0.9821,-2.5579,9.4181,-0.0451,-0.0208,-0.0113
21.56,0.9536,-2.4124,9.5382,-0.01,0.0201,0.0171
21.58,1.1579,-2.0863,9.4985,0.0266,0.0168,0.0033
21.6,1.2584,-2.4449,9.6631,-0.0337,0.0455,-0.0035
21.62,1.1424,-2.0163,9.7363,0.0649,0.0275,0.0084
21.64,1.2636,-2.2842,9.8315,0.0508,-0.0128,0.0335
21.66,1.0161,-2.4878,9.4148,0.0233,-0.0219,-0.0141
21.68,0.9996,-2.4563,9.4068,0.0919,0.1012,0.0248
21.7,1.1038,-2.3497,9.2518,0.0987,0.1499,0.0345
21.72,1.107,-2.6747,9.0188,0.079,0.2039,-0.0385
21.74,0.7733,-2.3396,8.7631,-0.0045,0.0038,-0.0453
21.76,0.9898,-2.2984,8.8895,-0.1684,-0.2244,-0.1061
21.78,0.6634,-2.4313,9.0419,-0.2909,-0.4152,-0.111
21.8,0.4529,-2.1494,9.0192,-0.3682,-0.3409,-0.1181
21.82,0.5198,-2.2115,9.6449,-0.35,0.0327,-0.1137
21.84,0.8611,-2.252,11.2847,-0.2252,0.4625,-0.0699
21.86,1.4233,-1.7618,11.6816,0.018,0.6029,0.0284
21.88,1.2139,-2.0295,10.7539,0.2505,0.404,0.0569
21.9,1.6186,-2.1756,9.6536,0.3579,-0.0367,0.1274
21.92,1.4661,-2.2537,8.9546,0.303,-0.3781,0.0871
21.94,1.3637,-2.392,9.2634,0.2707,-0.4003,0.1354
21.96,1.3059,-2.3084,9.003,0.1068,-0.1816,0.1226
21.98,1.2726,-2.2638,9.2412,0.0076,0.0583,0.0434
22.0,1.0648,-2.3901,9.3112,-0.0542,0.1764,0.0187
22.02,1.0296,-2.388,9.5873,-0.0658,0.192,0.0222
22.04,1.0227,-2.4402,9.4294,-0.0841,0.0463,-0.0339
22.06,0.8799,-2.2481,9.5338,-0.0794,0.003,0.0305
22.08,1.1475,-2.3436,9.6688,-0.0111,-0.0566,0.0044
22.1,0.7857,-2.352,9.4634,0.0008,-0.0094,-0.035
22.12,0.8092,-2.4638,9.0519,-0.0327,-0.0144,-0.011
22.14,1.5266,-2.0415,9.8655,0.0428,0.0055,-0.0107
22.16,0.7618,-2.5291,9.2793,-0.0305,-0.0712,-0.0026
22.18,0.6764,-2.5632,9.2632,-0.0306,-0.0365,-0.0457
22.2,1.2079,-2.2814,9.2553,0.0604,0.0861,-0.0112
22.22,1.0457,-2.2947,9.2521,0.0703,0.1827,-0.0497
22.24,0.3626,-2.4063,8.3103,-0.0218,0.1151,0.022
22.26,1.1365,-2.2331,9.2746,0.001,0.0201,0.0449
22.28,0.9078,-2.1529,8.8129,-0.0845,-0.2082,0.0925
22.3,0.9897,-2.385,9.1487,-0.2424,-0.4207,0.1444
22.32,0.4561,-2.2575,8.7101,-0.3653,-0.3762,0.146
22.34,0.4209,-2.5506,9.5881,-0.3407,0.0007,0.1409
22.36,0.583,-2.4153,11.0457,-0.2183,0.4616,0.0616
22.38,1.2133,-2.6957,11.5676,0.0064,0.6523,0.0268
22.4,1.4323,-3.0306,10.6491,0.2223,0.4947,-0.0649
22.42,1.5271,-2.4559,9.7021,0.3371,0.0146,-0.1001
22.44,1.4848,-2.4594,8.9512,0.335,-0.3819,-0.1364
22.46,0.9491,-2.191,8.7888,0.2474,-0.4412,-0.0971
22.48,1.1413,-2.3116,8.8861,0.1193,-0.2165,-0.0953
22.5,1.0945,-2.3022,8.7746,0.0175,0.0524,-0.0371
22.52,0.8701,-2.3017,9.1008,-0.0659,0.1882,-0.0007
22.54,0.8222,-2.2987,9.0351,-0.1261,0.1573,0.0209
22.56,0.7216,-2.4552,9.1866,-0.113,0.0643,0.0326
22.58,0.953,-2.3049,9.4028,-0.0451,0.0286,0.023
22.6,0.7111,-2.2272,9.5107,-0.0238,-0.0287,0.0007
22.62,0.9151,-2.4148,9.1998,-0.0007,-0.0102,0.0301
22.64,1.2358,-2.3941,9.5156,-0.0014,0.0138,0.0328
22.66,0.9354,-2.5101,9.5609,0.0156,0.014,0.0138
22.68,1.1624,-2.1404,9.6301,0.0179,0.0087,0.0147
22.7,0.6589,-2.3777,9.2883,0.0095,-0.0177,-0.0053
22.72,0.9174,-2.4098,9.3441,0.0894,0.0264,0.0334
22.74,0.9546,-2.5429,9.1228,0.0898,0.0969,-0.016
22.76,0.9444,-2.3104,9.1641,0.1176,0.2042,0.0358
22.78,0.8187,-2.4364,8.8751,0.0529,0.115,-0.0128
22.8,0.8978,-2.3583,9.0799,0.0009,-0.029,-0.0616
22.82,1.0445,-2.5753,8.8071,-0.1694,-0.2764,-0.0828
22.84,0.5681,-2.431,8.5959,-0.3255,-0.4749,-0.1679
22.86,0.5465,-2.3768,9.1056,-0.3766,-0.2757,-0.1487
22.88,0.2209,-2.3339,9.7988,-0.3405,0.1627,-0.1172
22.9,0.7885,-1.7002,11.2432,-0.1884,0.5128,-0.0485
22.92,0.8375,-2.2922,10.9883,0.0178,0.605,0.033
22.94,1.4091,-2.013,10.2474,0.2497,0.3135,0.1053
22.96,1.6714,-2.1798,9.4143,0.3918,-0.098,0.1758
22.98,1.4342,-2.28,8.8734,0.3558,-0.4445,0.1296
23.0,0.9214,-2.7113,8.5842,0.22,-0.4075,0.1271
23.02,0.7897,-2.4955,8.9391,0.0626,-0.1539,0.0756
23.04,0.8791,-2.6056,9.0792,-0.0584,0.0732,0.0362
23.06,0.8889,-2.3713,9.0614,-0.093,0.1818,0.0305
23.08,0.7477,-2.4694,9.1338,-0.1274,0.1499,0.012
23.1,0.8639,-2.2546,9.5093,-0.0743,0.0408,-0.0115
23.12,0.6434,-2.2494,9.3107,-0.1011,-0.0547,-0.053
23.14,0.8962,-2.2362,9.6315,-0.0122,-0.0127,0.0205
23.16,0.909,-2.2946,9.7118,-0.003,-0.0051,0.0067
23.18,0.8849,-2.4216,9.3641,0.0196,0.0317,-0.0267
23.2,1.0487,-2.2333,9.522,-0.0122,0.0251,-0.0474
23.22,0.9182,-2.4378,9.4804,0.0024,-0.0222,-0.0052
23.24,1.2231,-2.4134,9.6929,0.0348,0.0069,0.0147
23.26,1.0179,-2.5601,9.2133,-0.0003,-0.004,-0.0339
23.28,1.069,-2.1653,9.4401,0.1102,0.1187,-0.0351
23.3,1.4226,-2.3004,9.1886,0.0724,0.1456,-0.0062
23.32,0.9142,-2.3143,9.2143,0.0499,0.1371,0.0172
23.34,0.9971,-2.2196,9.0617,-0.0022,-0.0511,0.0566
23.36,0.764,-2.2269,9.0504,-0.1601,-0.3148,0.1221
23.38,0.7643,-2.2466,8.8031,-0.2634,-0.4119,0.1141
23.4,0.4788,-2.4911,8.9527,-0.3626,-0.298,0.1481
23.42,0.9058,-2.4943,10.534,-0.2448,0.125,0.0999
23.44,0.8222,-2.4207,10.9618,-0.1463,0.4833,0.0329
23.46,0.8501,-2.5761,11.098,0.0527,0.5532,-0.0068
23.48,1.5625,-2.5246,10.7268,0.2177,0.2811,-0.0354
23.5,1.5966,-2.445,9.5397,0.3087,-0.1358,-0.1175
23.52,1.3278,-2.3909,9.0954,0.3136,-0.3539,-0.1108
23.54,1.198,-2.2631,9.0395,0.1837,-0.3565,-0.1008
23.56,1.21,-2.0542,9.259,0.1071,-0.1006,-0.0848
23.58,0.979,-2.2381,9.0951,-0.0702,0.0806,-0.0395
23.6,0.9373,-2.1727,9.3949,-0.091,0.1552,-0.0026
23.62,0.9074,-2.4017,9.3015,-0.1037,0.1304,-0.0266
23.64,1.04,-2.0795,9.622,-0.0644,0.0637,0.0115
23.66,0.9493,-2.4897,9.498,-0.0869,-0.0287,-0.0113
23.68,1.0858,-2.4245,9.6743,-0.0325,-0.0355,0.0249
23.7,1.1645,-2.1638,9.5984,-0.0026,0.0091,0.0143
23.72,1.0564,-2.2514,9.5637,-0.0002,0.0108,0.0039
23.74,1.1139,-2.0331,9.5871,0.0017,-0.0068,-0.0161
23.76,1.2315,-2.4045,9.7388,-0.0046,0.0016,0.0287
23.78,0.9602,-2.242,9.5106,-0.011,-0.059,0.0073
23.8,1.1799,-2.1362,9.6516,0.0604,0.0168,0.0437
23.82,1.4053,-2.6173,9.6442,0.0676,0.0945,0.0645
23.84,1.2146,-2.3725,9.6098,0.0991,0.1795,0.0341
23.86,0.9527,-2.4046,8.9058,0.0482,0.1812,0.0076
23.88,1.2341,-2.3735,9.2165,0.0304,0.1015,-0.0112
23.9,1.0581,-2.378,8.6892,-0.1205,-0.1851,-0.0884
23.92,0.8808,-2.5604,8.9434,-0.2409,-0.4038,-0.1165
23.94,0.5598,-2.0894,8.9936,-0.3452,-0.4341,-0.1564
23.96,0.4012,-2.1481,9.643,-0.3623,-0.1102,-0.1264
23.98,0.3958,-2.0331,10.3566,-0.2498,0.3912,-0.0869
24.0,0.8698,-2.049,11.3011,-0.0291,0.6169,-0.0306
24.02,1.2847,-1.9117,11.0182,0.1774,0.4765,0.0904
24.04,1.2692,-2.4374,9.5229,0.3287,0.055,0.0884
24.06,1.4347,-2.3419,8.9382,0.3581,-0.3587,0.1098
24.08,1.1477,-2.5077,8.6149,0.2409,-0.4252,0.1299
24.1,1.1943,-2.5008,9.0795,0.1848,-0.2623,0.0859
24.12,0.6797,-2.6248,8.6592,-0.0048,-0.0035,0.0349
24.14,1.1182,-2.5018,9.095,-0.0658,0.1706,0.024
24.16,0.8967,-2.2936,9.2128,-0.0526,0.1862,0.0341
24.18,0.7338,-2.3594,9.179,-0.0987,0.0903,-0.0293
24.2,0.9119,-2.3866,9.4656,-0.0617,0.0044,0.0014
24.22,0.9767,-2.2298,9.5944,-0.0096,-0.0035,-0.0388
24.24,0.8049,-2.3004,9.4788,-0.0074,0.0333,-0.0069
24.26,0.7835,-2.3156,9.3947,-0.0238,0.01,0.0063
24.28,0.9095,-2.388,9.4956,-0.0134,0.0134,-0.0248
24.3,0.8232,-2.449,9.2592,-0.0116,0.0338,0.0012
24.32,1.1512,-2.3085,9.3441,0.0095,0.044,0.0206
24.34,1.0908,-2.4653,9.1724,-0.0387,0.028,-0.0035
24.36,1.0347,-2.5101,9.3381,-0.0259,-0.0061,-0.019
24.38,0.6883,-2.3472,9.3574,-0.0416,-0.0393,0.0152
24.4,0.7732,-2.3333,9.3181,-0.0162,-0.0744,-0.0141
24.42,0.9764,-2.5195,9.3686,0.0619,0.0382,-0.0352
24.44,1.0688,-2.1582,9.2779,0.0469,0.0572,-0.0412
24.46,0.8453,-2.5192,9.0252,0.0676,0.1665,-0.0377
24.48,0.8442,-2.278,8.8778,0.0361,0.1389,-0.0473
24.5,1.0798,-2.3918,8.7798,-0.0181,-0.0228,0.0492
24.52,0.9141,-2.2671,8.8699,-0.1151,-0.2153,0.0985
24.54,0.7325,-2.3752,8.4859,-0.2656,-0.4382,0.1071
24.56,0.4981,-2.5187,8.9468,-0.4081,-0.3497,0.1217
24.58,0.4079,-2.4155,9.4455,-0.3526,0.0196,0.0886
24.6,0.9078,-2.5805,11.042,-0.1641,0.4697,0.0632
24.62,0.998,-2.6374,11.2622,0.0256,0.645,-0.0042
24.64,1.2568,-2.8671,10.2248,0.2317,0.3739,-0.0785
24.66,1.8378,-2.4956,9.5598,0.3671,-0.0332,-0.1237
24.68,1.4284,-2.2973,8.9219,0.3631,-0.4316,-0.1384
24.7,1.0131,-2.3021,8.6555,0.2381,-0.4489,-0.1243
24.72,0.8361,-2.3078,8.7028,0.0571,-0.2196,-0.0897
24.74,1.0885,-2.3281,9.0162,-0.0028,0.0609,-0.0191
24.76,1.0766,-2.2065,9.2085,-0.0674,0.1954,-0.0253
24.78,0.959,-2.1567,9.5493,-0.0566,0.1336,0.0332
24.8,0.8034,-2.3507,9.3861,-0.0604,0.0806,0.0301
24.82,0.9884,-2.4298,9.5811,-0.0459,0.002,0.0123
24.84,0.9967,-2.2463,9.607,-0.0327,-0.0309,0.0214
24.86,0.8318,-2.2912,9.3444,-0.0877,-0.0365,-0.0116
24.88,0.865,-2.373,9.6868,-0.0029,0.0139,0.0125
24.9,0.9189,-2.2692,9.6231,-0.0019,0.0219,0.0458
24.92,0.9825,-2.4755,9.3608,-0.0328,-0.0281,-0.0146
24.94,1.2049,-2.2331,9.7171,0.0162,0.0039,0.0166
24.96,1.1459,-2.3389,9.473,0.042,0.0092,0.0262
24.98,1.0832,-2.2577,9.5362,0.082,0.1129,0.0386
25.0,1.3651,-2.3659,9.3481,0.1056,0.1881,0.0126
25.02,1.1805,-2.4515,9.2854,0.097,0.1156,-0.0351
25.04,1.0644,-2.5372,9.1814,-0.0123,-0.0051,0.0006
25.06,0.7311,-2.4519,8.8661,-0.153,-0.2833,-0.0818
25.08,0.9405,-2.3717,9.0687,-0.3072,-0.3991,-0.103
25.1,0.7692,-2.0903,9.1456,-0.3601,-0.3125,-0.1172
25.12,0.7446,-2.0239,10.0452,-0.3379,0.0796,-0.091
25.14,0.8896,-1.8819,11.133,-0.1937,0.4769,-0.057
25.16,0.9747,-2.0434,11.2433,0.0831,0.5986,0.0327
25.18,1.6671,-1.9586,10.6792,0.2615,0.3321,0.0848
25.2,1.2772,-2.2492,9.4305,0.3315,-0.1009,0.0939
25.22,1.777,-2.157,9.1651,0.3671,-0.3603,0.1468
25.24,1.0767,-2.2102,8.8171,0.2441,-0.3589,0.1045
25.26,1.1738,-2.3911,9.1167,0.0842,-0.1787,0.0757
25.28,0.953,-2.4471,9.0334,-0.0171,0.0737,0.0298
25.3,1.195,-2.2467,9.3456,-0.0769,0.1794,0.008
25.32,0.9476,-2.3703,9.1583,-0.1294,0.1217,-0.008
25.34,0.9007,-2.2782,9.2948,-0.1075,0.0547,-0.0295
25.36,1.1406,-2.3466,9.6361,-0.0386,-0.0066,-0.0098
25.38,1.2047,-2.3781,9.5561,-0.027,-0.0305,0.0018
25.4,1.0179,-2.2638,9.4896,-0.0435,-0.0264,-0.0044
25.42,1.1591,-2.009,9.5388,0.0032,-0.009,-0.0174
25.44,1.0873,-2.0554,9.5768,-0.0229,0.0071,0.0174
25.46,0.9533,-2.0883,9.5137,0.0067,-0.042,-0.0217
25.48,0.8612,-2.3441,9.5597,-0.0219,-0.0582,-0.0336
25.5,1.2559,-2.1789,9.5076,0.0459,0.0536,0.025
25.52,1.1158,-2.3336,9.1662,0.0573,0.0868,-0.0757
25.54,1.2139,-2.2072,9.4821,0.1253,0.2201,-0.0061
25.56,1.1962,-2.1028,9.1172,0.1141,0.1976,0.0318
25.58,0.801,-2.2373,8.839,-0.011,0.0085,0.0401
25.6,0.9582,-2.0267,8.8108,-0.1847,-0.3018,0.0907
25.62,0.9107,-2.1112,9.0211,-0.2717,-0.4787,0.1667
25.64,0.6791,-2.4651,8.8527,-0.4221,-0.3874,0.1602
25.66,0.5653,-2.4753,9.8181,-0.4174,0.0802,0.1297
25.68,0.7592,-2.8159,10.8684,-0.2367,0.5262,0.0438
25.7,0.9881,-2.5047,11.4209,0.017,0.7043,-0.005
25.72,1.6926,-2.5278,10.8063,0.2758,0.4452,-0.0928
25.74,1.5834,-2.5309,9.1895,0.4132,-0.1118,-0.1435
25.76,1.4392,-2.2138,8.6593,0.3796,-0.4411,-0.2005
25.78,0.9204,-2.3052,8.5254,0.2548,-0.495,-0.1608
25.8,0.9891,-2.3067,8.9697,0.1135,-0.2115,-0.0629
25.82,1.1772,-2.1396,9.1473,0.0132,0.0944,-0.041
25.84,0.8175,-2.2029,8.9293,-0.0983,0.2236,0.0075
25.86,0.8558,-2.2198,8.989,-0.1018,0.1712,0.0156
25.88,0.8245,-2.2605,9.1986,-0.0511,0.0709,0.0251
25.9,0.8254,-2.3687,9.3869,-0.0435,-0.0422,0.0148
25.92,0.9415,-2.4192,9.4381,-0.0373,-0.021,0.007
25.94,1.0354,-2.4082,9.4755,0.0139,-0.0368,0.0223
25.96,0.7425,-2.4556,9.4046,-0.022,0.0009,0.0104
25.98,0.9866,-2.3063,9.4828,0.0037,-0.0002,0.0401
26.0,1.2174,-2.0892,9.5366,0.0223,0.0355,0.006
26.02,0.7617,-2.3548,9.2692,0.0459,0.0125,0.0158
26.04,1.1329,-2.2598,9.281,0.0518,0.0761,-0.033
26.06,1.1137,-2.2651,9.246,0.086,0.1864,-0.0047
26.08,0.9171,-2.4803,9.0185,0.0807,0.1449,-0.0274
26.1,1.0942,-2.3247,9.1835,-0.0041,-0.0273,-0.0137
26.12,0.7369,-2.3384,8.8578,-0.1489,-0.2875,-0.108
26.14,0.8249,-2.4465,8.8081,-0.2975,-0.3612,-0.139
26.16,0.1142,-2.3321,8.8762,-0.3568,-0.2642,-0.1344
26.18,0.8206,-2.0906,10.0157,-0.2961,0.1206,-0.0977
26.2,0.8661,-1.9409,11.0179,-0.1541,0.5449,-0.0632
26.22,0.868,-2.2589,10.6128,0.0415,0.5138,0.0264
26.24,1.493,-2.0313,10.53,0.2096,0.2815,0.0914
26.26,1.5403,-2.2854,9.343,0.3808,-0.1123,0.1223
26.28,1.3201,-2.3584,8.9732,0.3205,-0.3839,0.1148
26.3,1.2197,-2.4888,8.9464,0.1663,-0.3672,0.1053
26.32,1.025,-2.5595,8.9241,0.0271,-0.1279,0.051
26.34,1.0971,-2.3488,9.089,-0.0566,0.0807,0.0107
26.36,0.8146,-2.3803,9.0074,-0.1425,0.1393,-0.022
26.38,1.187,-2.3145,9.1953,-0.1094,0.1345,-0.0084
26.4,0.9289,-2.2716,9.2788,-0.0664,0.0167,0.0004
26.42,1.0651,-2.2739,9.418,-0.03,-0.0075,-0.0059
26.44,1.0117,-2.261,9.5851,-0.0175,-0.0339,-0.0175
26.46,0.9577,-2.4923,9.129,-0.0606,-0.0228,-0.0368
26.48,1.1967,-2.3668,9.3482,-0.0035,0.0037,-0.0186
26.5,1.1449,-2.2359,9.6116,-0.0179,-0.001,-0.022
26.52,1.1324,-2.3061,9.688,0.008,-0.0132,0.0068
26.54,0.9281,-2.3649,9.5204,-0.0083,0.004,-0.0292
26.56,1.2145,-2.1834,9.5083,0.0657,0.0433,-0.0107
26.58,1.1501,-2.2138,9.324,0.0749,0.1124,-0.0097
26.6,1.1615,-2.1698,9.2,0.0681,0.151,-0.0111
26.62,1.0883,-2.0489,9.06,-0.003,0.0917,0.0293
26.64,0.7574,-2.1431,9.0589,-0.1463,-0.1742,0.0537
26.66,0.8043,-2.3572,9.1252,-0.25,-0.3525,0.0873
26.68,0.7602,-2.2634,9.1824,-0.3079,-0.3599,0.1531
26.7,0.8909,-2.3423,9.6798,-0.3457,-0.0678,0.0979
26.72,0.8221,-2.5151,10.3271,-0.2395,0.347,0.0636
26.74,0.7781,-2.6686,10.7871,-0.082,0.5482,0.0084
26.76,1.2913,-2.3587,10.8273,0.1463,0.4698,-0.0411
26.78,1.7808,-2.4658,10.0123,0.305,0.091,-0.12
26.8,1.4838,-2.4767,9.1589,0.3199,-0.2877,-0.1181
26.82,1.3296,-2.2878,9.0301,0.2474,-0.4144,-0.1485
26.84,1.244,-2.3333,9.0418,0.137,-0.2586,-0.0887
26.86,1.1208,-2.2421,9.1204,-0.0009,-0.0199,-0.0257
26.88,1.0094,-2.1014,9.2787,-0.076,0.1727,-0.0156
26.9,1.0465,-2.2032,9.1021,-0.1413,0.1164,0.0048
26.92,1.034,-2.2684,9.4878,-0.0902,0.047,0.0187
26.94,1.0301,-2.4767,9.3542,-0.0811,-0.0097,0.0251
26.96,1.1623,-2.3973,9.5478,-0.0496,-0.0369,-0.0007
26.98,1.281,-2.2201,9.6415,-0.021,-0.0218,0.014
27.0,0.9524,-2.2639,9.4581,-0.0472,-0.0052,0.0058
27.02,0.8544,-2.2467,9.5155,0.0015,-0.0156,-0.0025
27.04,1.0908,-2.369,9.2414,-0.0495,0.0101,-0.0426
27.06,0.9749,-2.349,9.4019,-0.0125,0.0104,0.0132
27.08,1.0793,-2.3281,9.4413,-0.0029,-0.0008,0.0157
27.1,1.1547,-2.1361,9.7815,0.003,0.0041,0.0177
27.12,1.0087,-2.2448,9.6152,-0.0026,-0.0269,0.0201
27.14,1.0452,-2.2465,9.4324,0.0274,-0.0001,0.0615
27.16,1.1087,-2.4005,9.3066,0.0126,0.0669,0.0198
27.18,1.1375,-2.484,9.3469,0.0963,0.1331,0.0392
27.2,1.152,-2.3256,9.4211,0.11,0.1759,-0.0106
27.22,1.0815,-2.1944,8.9787,0.0099,0.0757,-0.0127
27.24,0.9431,-2.3504,9.0325,-0.0871,-0.1894,-0.0692
27.26,0.5799,-2.4862,8.9832,-0.2779,-0.4226,-0.1294
27.28,0.7032,-2.292,8.8909,-0.356,-0.4306,-0.1359
27.3,0.4847,-2.2149,9.5156,-0.3265,-0.0494,-0.0857
27.32,0.739,-2.1723,10.4995,-0.2328,0.3956,-0.0851
27.34,0.6186,-2.2627,10.6953,-0.1296,0.5885,-0.0183
27.36,1.5631,-1.8188,11.1038,0.1681,0.5194,0.0695
27.38,1.5144,-2.0623,9.8128,0.2958,0.0896,0.1085
27.4,1.3402,-2.085,8.8185,0.3735,-0.3086,0.1348
27.42,1.1337,-2.2322,8.9468,0.2497,-0.4594,0.1444
27.44,0.9798,-2.1979,8.8613,0.0828,-0.3038,0.0568
27.46,1.204,-2.2397,8.9963,0.0001,0.0275,0.0694
27.48,0.8364,-2.5526,8.8335,-0.0936,0.1108,-0.0015
27.5,0.8871,-2.2726,9.046,-0.1185,0.1742,0.0016
27.52,0.9099,-2.2659,9.1455,-0.0946,0.086,-0.0501
27.54,0.6178,-2.3299,9.3455,-0.0729,-0.0197,-0.0251
27.56,0.862,-2.2612,9.398,-0.0288,-0.0251,-0.0019
27.58,1.0742,-2.2393,9.5276,0.0022,-0.0044,-0.0062
27.6,0.8604,-2.2774,8.9933,-0.0464,-0.0086,-0.0486
27.62,0.9382,-2.4281,9.2244,-0.0021,-0.0204,-0.0007
27.64,1.196,-2.1809,9.5814,0.0168,0.0016,0.0356
27.66,0.7946,-2.5329,9.4242,0.0034,-0.0577,-0.036
27.68,1.0217,-2.5678,9.5287,0.0114,-0.0193,-0.0184
27.7,1.0094,-2.3662,9.1642,0.0766,0.0793,-0.0273
27.72,0.8513,-2.2012,9.1111,0.0981,0.1715,-0.0162
27.74,0.8077,-2.185,8.7842,0.0384,0.1939,0.0009
27.76,0.6737,-2.1457,8.7523,-0.0297,0.0213,0.0265
27.78,1.0732,-2.2048,9.0904,-0.1123,-0.2423,0.0916
27.8,0.7315,-2.0326,8.9943,-0.2671,-0.4392,0.1464
27.82,0.4806,-2.3415,8.937,-0.4147,-0.4343,0.124
27.84,0.4323,-2.3821,9.5125,-0.4123,-0.0531,0.1139
27.86,0.4709,-2.7612,10.3606,-0.2512,0.3673,0.094
27.88,1.2171,-2.546,11.4841,-0.0095,0.6751,0.0236
27.9,1.6787,-2.3073,11.1464,0.2276,0.5172,-0.0823
27.92,1.3092,-2.468,9.596,0.3291,0.0481,-0.1483
27.94,1.418,-2.128,8.7543,0.3342,-0.3968,-0.1584
27.96,1.4922,-2.16,8.725,0.3035,-0.4488,-0.1347
27.98,1.3053,-2.1756,9.076,0.1497,-0.2513,-0.058
28.0,0.8018,-2.1389,8.8415,-0.0286,0.0049,-0.0911
28.02,0.9848,-2.1811,9.1644,-0.0521,0.1771,-0.011
28.04,0.8633,-2.1042,9.2202,-0.1569,0.1675,0.0226
28.06,0.8857,-2.3354,9.2588,-0.1205,0.072,0.0301
28.08,1.1314,-2.0938,9.4716,-0.0628,0.0106,0.0433
28.1,1.1565,-2.2184,9.8497,-0.0345,-0.0446,0.0392
28.12,1.1721,-2.1862,9.7103,-0.0193,0.0064,0.0016
28.14,1.2812,-2.1824,9.4717,-0.008,0.0063,0.0422
28.16,0.9269,-2.2152,9.4522,0.0087,0.0044,0.0162
28.18,1.1035,-2.3917,9.4137,0.0062,-0.0371,0.0186
28.2,1.2962,-2.2066,9.6325,-0.032,-0.0037,0.0088
28.22,1.236,-2.4563,9.8161,0.0343,-0.0292,0.0517
28.24,1.4004,-2.2397,9.5045,0.0274,0.0152,0.0262
28.26,1.2082,-2.3687,9.3304,0.0421,0.0901,0.0272
28.28,1.0595,-2.1676,9.4086,0.103,0.1845,0.031
28.3,1.2559,-2.2849,9.1915,0.0394,0.1176,-0.0076
28.32,1.0626,-2.4659,9.0147,-0.0342,-0.0559,-0.0849
28.34,1.1358,-2.1521,9.0434,-0.1257,-0.305,-0.0946
28.36,0.8918,-2.2485,8.969,-0.2976,-0.4352,-0.1333
28.38,0.7025,-2.1224,9.1722,-0.3724,-0.2572,-0.1045
28.4,0.6972,-2.0547,9.9704,-0.3159,0.1227,-0.1287
28.42,0.7596,-1.9038,11.1207,-0.1723,0.4782,-0.0512
28.44,1.2252,-1.95,11.2098,0.0871,0.5759,0.0425
28.46,1.1906,-1.9734,10.1921,0.2459,0.2644,0.0818
28.48,1.5228,-2.4568,9.2314,0.2872,-0.1597,0.0981
28.5,1.2224,-2.4648,8.8192,0.3239,-0.3905,0.1344
28.52,1.4282,-2.2506,8.9649,0.1709,-0.3435,0.0901
28.54,1.0544,-2.3833,8.954,0.0451,-0.1935,0.0233
28.56,1.2902,-2.1796,9.2971,-0.051,0.102,0.0365
28.58,1.0897,-2.2364,9.3801,-0.0592,0.1811,0.0203
28.6,0.9371,-2.3375,9.3631,-0.1303,0.1334,-0.0244
28.62,0.8076,-2.1116,9.2199,-0.1012,0.0024,-0.0589
28.64,0.6112,-2.5371,9.5748,-0.033,-0.0534,-0.0133
28.66,1.085,-2.2164,9.5536,-0.034,-0.0504,-0.0112
28.68,1.3714,-2.3059,9.6959,0.025,-0.0047,0.0047
28.7,1.2749,-2.0946,9.6805,0.0222,0.0233,0.0093
28.72,1.0549,-2.3039,9.3803,-0.0179,-0.0108,0.0199
28.74,1.2141,-2.2702,10.0183,0.0168,0.0589,0.0196
28.76,1.112,-2.1666,9.2926,-0.0455,-0.02,0.0022
28.78,1.0284,-2.2259,9.4842,0.0104,-0.0057,0.0033
28.8,0.9341,-2.3081,9.4046,0.0122,-0.0163,0.0162
28.82,1.1101,-2.3948,9.5165,-0.016,0.0059,0.007
28.84,1.0741,-2.025,9.451,0.0078,-0.0251,-0.0088
28.86,0.9179,-2.2659,9.502,0.0641,0.0292,-0.0253
28.88,1.0906,-2.1822,9.4317,0.0815,0.1114,-0.0092
28.9,1.0103,-2.1879,8.9379,0.058,0.1935,0.0194
28.92,0.8645,-2.1644,8.8623,0.043,0.1413,0.0251
28.94,0.8752,-2.1732,9.0037,-0.0164,-0.1083,0.0486
28.96,1.003,-2.2663,8.8544,-0.1941,-0.3753,0.1068
28.98,0.4989,-2.4119,8.8102,-0.3375,-0.468,0.1402
29.0,0.4405,-2.3029,8.9239,-0.4023,-0.2327,0.112
29.02,0.3988,-2.3891,10.1183,-0.3272,0.2242,0.0669
29.04,0.5195,-3.0593,10.9816,-0.1246,0.5494,0.0244
29.06,1.1892,-2.5624,11.3477,0.1258,0.6015,-0.0479
29.08,1.5551,-2.5178,10.3496,0.2932,0.1826,-0.1173
29.1,1.585,-2.5325,9.1288,0.3517,-0.1873,-0.1212
29.12,1.3798,-2.4629,8.6746,0.3304,-0.4784,-0.1585
29.14,0.9434,-2.2179,8.6527,0.1668,-0.3682,-0.1099
29.16,0.992,-2.3698,8.962,0.0368,-0.0882,-0.0683
29.18,0.9904,-2.2665,9.1782,-0.0297,0.1337,-0.0378
29.2,1.0123,-2.1627,9.2555,-0.1104,0.1984,-0.0164
29.22,1.0157,-2.2021,9.3734,-0.0478,0.145,0.0059
29.24,0.7765,-2.2218,9.3345,-0.0587,-0.015,0.0614
29.26,0.996,-2.3575,9.5805,0.0062,-0.0041,0.0584
29.28,1.0661,-2.2413,9.2584,-0.0016,-0.0035,-0.0008
29.3,0.9147,-2.5071,9.184,-0.055,-0.0462,-0.0226
29.32,1.1092,-2.0121,9.6428,0.0345,0.0207,0.0561
29.34,1.0438,-2.3548,9.6078,-0.0195,-0.0293,0.0174
29.36,1.0789,-2.3353,9.4753,-0.0046,-0.0304,0.0104
29.38,0.9682,-2.454,9.3831,0.0768,0.0368,0.0388
29.4,1.3323,-2.5606,9.2006,0.0724,0.1011,0.0106
29.42,1.1787,-2.5468,9.0546,0.0544,0.177,0.0031
29.44,1.1304,-2.601,9.0182,0.0134,0.1601,-0.0213
29.46,0.8945,-2.5397,8.7852,-0.048,-0.0401,-0.0667
29.48,1.1182,-2.4022,9.1355,-0.1409,-0.2963,-0.0828
29.5,0.5441,-2.3954,8.6902,-0.3097,-0.4498,-0.1585
29.52,0.7622,-2.2613,9.1038,-0.326,-0.2404,-0.1482
29.54,0.6153,-2.1167,10.0392,-0.3184,0.1187,-0.0996
29.56,0.6995,-2.1353,10.8731,-0.2113,0.4875,-0.033
29.58,1.4612,-2.1323,11.147,0.0278,0.5805,0.0348
29.6,1.6717,-2.1764,10.6618,0.2854,0.27,0.0836
29.62,1.5653,-2.017,9.6111,0.3886,-0.1451,0.1555
29.64,1.3689,-2.1534,8.858,0.3384,-0.4054,0.1536
29.66,1.057,-2.1384,8.9001,0.2304,-0.3872,0.129
29.68,0.9749,-2.2879,8.9763,0.0697,-0.0994,0.0945
29.7,0.8341,-2.2831,9.0692,-0.049,0.0897,0.0184
29.72,0.9488,-2.4205,9.2071,-0.1243,0.1681,-0.0249
29.74,0.8619,-2.2875,9.3377,-0.0856,0.1254,0.0205
29.76,0.6978,-2.3585,9.34,-0.104,-0.003,-0.0294
29.78,1.2182,-2.1467,9.5746,-0.0381,0.0065,-0.0179
29.8,1.0597,-2.2909,9.6241,-0.0458,-0.0426,-0.0459
29.82,1.1429,-2.1015,9.3971,-0.0217,-0.0213,-0.0096
29.84,1.3061,-2.4121,9.623,-0.0002,0.0028,-0.0008
29.86,1.138,-2.4663,9.7441,-0.0419,-0.0363,-0.0151
29.88,1.1585,-2.3117,9.6158,0.0413,-0.0168,-0.0271
29.9,1.4061,-2.306,9.591,0.0935,0.0467,-0.0335
29.92,1.1456,-2.4121,9.374,0.0286,0.1187,-0.0278
29.94,1.2624,-2.3103,9.2238,0.1051,0.1527,-0.0121
29.96,1.335,-2.1497,9.44,0.0473,0.1032,0.012
29.98,1.1644,-2.1995,8.8697,-0.0701,-0.1013,0.1064
30.0,1.1018,-2.0061,8.9095,-0.2403,-0.3697,0.1141
30.02,0.6852,-2.1446,8.9266,-0.355,-0.4624,0.1315
30.04,0.7019,-2.3914,9.1773,-0.3643,-0.1872,0.1437
30.06,0.6525,-2.2853,10.421,-0.2932,0.2369,0.0647
30.08,1.0759,-2.3808,11.6195,-0.0543,0.5708,0.016
30.1,1.1631,-2.8002,11.3382,0.1436,0.5693,-0.0434
30.12,1.9222,-2.3393,10.6202,0.3292,0.2119,-0.0807
30.14,1.6697,-2.4698,8.9908,0.3446,-0.2815,-0.1363
30.16,1.6976,-2.4754,9.2126,0.3304,-0.4237,-0.1788
30.18,1.0525,-2.244,8.804,0.1819,-0.364,-0.1157
30.2,1.2954,-2.1695,9.0307,0.0692,-0.0471,-0.0398
30.22,1.2478,-2.0887,9.1076,-0.0908,0.1247,-0.0138
30.24,1.0872,-2.3584,9.1465,-0.1293,0.2159,-0.0109
30.26,0.7985,-2.1004,9.2743,-0.1036,0.0977,-0.0017
30.28,0.8247,-2.1428,9.436,-0.0347,0.0412,0.0178
30.3,0.7653,-2.1453,9.547,-0.0631,-0.0547,0.0261
30.32,1.3031,-2.3028,9.6636,0.0151,0.0054,0.0145
30.34,1.1114,-1.9533,9.7225,0.0193,-0.0093,0.0248
30.36,1.1762,-2.0907,9.4359,-0.0095,-0.0077,0.0014
30.38,1.0356,-2.2803,9.6625,-0.0165,-0.0005,0.0206
30.4,0.8491,-2.1948,9.2959,-0.0282,-0.0025,-0.0136
30.42,0.96,-2.2896,9.526,-0.0425,0.0141,-0.0162
30.44,0.8804,-2.3748,9.5676,-0.0508,-0.0351,0.0085
30.46,1.0778,-2.1532,9.8495,0.0145,-0.0045,0.0081
30.48,1.0371,-2.2233,9.3932,-0.0018,-0.0192,-0.0225
30.5,1.2743,-2.5418,9.2227,0.0539,0.0311,0.0114
30.52,1.047,-2.2039,9.1559,0.0646,0.0882,-0.0249
30.54,1.194,-2.3634,9.011,0.0854,0.1658,-0.0193
30.56,1.2681,-2.224,9.1423,0.0989,0.1216,-0.0497
30.58,0.984,-2.4059,8.8356,-0.0418,-0.1018,-0.0373
30.6,0.7109,-2.27,8.7449,-0.1835,-0.3085,-0.1043
30.62,0.8449,-2.1918,9.1449,-0.2429,-0.3674,-0.099
30.64,0.5462,-2.1611,9.1623,-0.3108,-0.2002,-0.0892
30.66,0.6021,-1.8777,10.0877,-0.2797,0.2178,-0.083
30.68,0.4987,-2.1823,10.8092,-0.1011,0.5163,-0.0038
30.7,1.0575,-2.0443,10.981,0.0751,0.5078,0.0185
30.72,1.7445,-1.7931,10.166,0.2945,0.2041,0.1002
30.74,1.6737,-2.0246,9.1728,0.3736,-0.1905,0.1028
30.76,1.2712,-2.4427,8.7305,0.2635,-0.3937,0.1111
30.78,0.9836,-2.387,8.7752,0.1712,-0.3165,0.1032
30.8,1.1624,-2.4431,8.8475,0.0412,-0.0905,0.0436
30.82,0.8182,-2.4067,8.9098,-0.0689,0.08,0.0104
30.84,0.7787,-2.3872,9.0001,-0.1073,0.152,0.0068
30.86,0.8519,-2.4983,9.0201,-0.0833,0.1342,-0.0152
30.88,0.7358,-2.6535,9.1944,-0.0743,0.0216,-0.0319
30.9,1.1679,-2.2836,9.436,-0.0068,-0.0624,-0.0061
30.92,0.7289,-2.2413,9.2076,-0.0331,-0.0632,-0.0546
30.94,0.9877,-2.4313,9.4652,-0.0259,-0.0167,0.004
30.96,0.8209,-2.5229,9.2847,0.0031,-0.0364,-0.0173
30.98,1.335,-2.169,9.6284,0.0382,-0.005,0.0289
31.0,1.0019,-2.2982,9.4223,0.0331,0.0099,-0.0049
31.02,1.0985,-2.4419,9.4969,0.0684,0.0468,0.0109
31.04,1.2055,-2.3722,9.2933,0.0915,0.1558,-0.0004
31.06,0.7989,-2.0788,8.9528,0.0479,0.1666,0.0078
31.08,0.8711,-1.8995,8.8272,0.037,0.0817,0.0317
31.1,0.9102,-2.4136,8.6931,-0.0946,-0.1532,0.0646
31.12,0.722,-2.221,8.5528,-0.2445,-0.392,0.1023
31.14,0.6933,-2.5357,8.9245,-0.3083,-0.3739,0.123
31.16,0.2491,-2.3059,9.2872,-0.3505,-0.1332,0.1493
31.18,0.6615,-2.4187,10.8665,-0.2807,0.3023,0.102
31.2,0.8731,-2.8801,11.3687,-0.0885,0.583,-0.0046
31.22,1.4374,-2.5969,11.0348,0.1459,0.5078,-0.0469
31.24,1.6779,-2.1566,10.1524,0.283,0.1175,-0.0825
31.26,1.2078,-2.4655,8.9484,0.353,-0.2954,-0.1158
31.28,1.3518,-2.2837,8.7753,0.3231,-0.4468,-0.115
31.3,1.2562,-2.2015,8.9413,0.1874,-0.3206,-0.1076
31.32,0.9855,-2.1818,9.0903,0.0088,-0.031,-0.0284
31.34,1.0267,-2.2991,8.9767,-0.0835,0.1093,-0.0349
31.36,1.0227,-2.1036,9.1778,-0.1185,0.1518,0.0033
31.38,0.8761,-2.2392,9.3203,-0.0899,0.0981,0.0305
31.4,1.0481,-2.4986,9.3793,-0.0826,-0.0485,0.0049
31.42,0.7474,-2.5349,9.365,-0.0608,-0.0635,-0.0203
31.44,1.4192,-1.9835,9.8815,-0.0123,-0.0226,0.0071
31.46,0.9942,-2.2947,9.6225,-0.0051,-0.0352,0.005
31.48,1.1909,-2.3351,9.4345,0.0075,0.0231,0.0292
31.5,1.2112,-2.1629,9.6205,0.0297,-0.0337,-0.0397
31.52,1.2274,-2.116,9.5433,0.0069,-0.0326,0.008
31.54,1.1985,-2.2322,9.4049,-0.0065,-0.0098,0.0186
31.56,1.2289,-2.4295,9.3478,0.0664,0.0583,-0.0014
31.58,1.1441,-2.573,9.1901,0.0941,0.0941,-0.0204
31.6,1.2669,-2.3631,9.3249,0.0833,0.1839,-0.027
31.62,1.1764,-2.2612,9.445,0.0605,0.0423,-0.0308
31.64,0.8462,-2.1909,8.9609,-0.1151,-0.289,-0.1183
31.66,1.0887,-2.1885,8.9277,-0.2718,-0.4169,-0.0766
31.68,0.406,-2.458,8.9363,-0.3566,-0.349,-0.1339
31.7,0.3924,-1.9008,9.8475,-0.3315,0.0768,-0.1141
31.72,0.6234,-2.0288,11.0239,-0.1865,0.4336,-0.0321
31.74,1.1571,-1.9965,11.2709,0.019,0.579,-0.0115
31.76,1.7058,-1.9425,10.6495,0.197,0.305,0.0606
31.78,1.5533,-2.0131,9.4609,0.3308,-0.0897,0.1407
31.8,1.5764,-2.2228,8.727,0.3154,-0.386,0.1317
31.82,1.6034,-2.3436,9.0806,0.2433,-0.375,0.1327
31.84,1.108,-2.3082,9.139,0.0787,-0.1661,0.0941
31.86,1.3016,-2.5033,9.1788,-0.0083,0.0583,0.0595
31.88,1.0611,-2.2074,9.2211,-0.111,0.1417,0.0025
31.9,1.2735,-2.3644,9.171,-0.0965,0.1333,-0.0008
31.92,0.94,-2.3921,9.3641,-0.064,0.0587,-0.0251
31.94,1.0808,-2.354,9.6411,0.0096,-0.0153,-0.0065
31.96,1.2845,-2.2283,9.733,0.0465,-0.0096,0.0192
31.98,1.226,-2.2892,9.4223,-0.0107,0.0023,-0.0456
32.0,1.2493,-2.6055,9.5522,0.0127,-0.0125,-0.0145
32.02,1.2022,-2.3127,9.2853,-0.0315,0.0174,-0.009
32.04,1.1431,-2.1135,9.7766,0.0218,0.0372,-0.0012
32.06,1.3675,-2.2651,9.4126,-0.0127,-0.0603,0.0359
32.08,1.241,-2.2038,9.6923,0.0628,0.0275,-0.0099
32.1,1.1358,-1.9907,9.6235,0.0272,-0.0026,-0.0034
32.12,1.1161,-2.138,9.1081,0.0448,0.0595,-0.0286
32.14,1.0442,-2.198,9.0564,0.0747,0.1645,-0.018
32.16,1.0399,-2.3789,9.0337,0.0831,0.1148,0.028
32.18,0.9451,-2.1863,8.7362,-0.0155,0.0099,0.0589
32.2,0.7481,-2.1085,8.7608,-0.0999,-0.2636,0.1168
32.22,1.1416,-2.304,8.8889,-0.2391,-0.4319,0.0783
32.24,0.5363,-2.3542,8.9238,-0.2965,-0.3188,0.1342
32.26,0.5024,-2.8662,9.418,-0.2936,0.0742,0.1139
32.28,0.6094,-2.3009,10.9088,-0.1804,0.4301,0.0461
32.3,1.2084,-2.5627,11.4954,0.0302,0.5619,-0.0494
32.32,1.2846,-2.7933,10.0793,0.2383,0.3316,-0.079
32.34,1.5556,-2.447,9.3394,0.3441,-0.1029,-0.093
32.36,1.256,-2.5233,8.8785,0.3109,-0.401,-0.0956
32.38,1.2506,-2.4376,8.9193,0.2168,-0.3775,-0.096
32.4,1.0357,-2.1309,8.8853,0.0538,-0.1822,-0.044
32.42,0.9937,-2.1912,8.9249,-0.0583,0.0485,-0.0758
32.44,0.9634,-2.3955,9.1323,-0.0774,0.1488,-0.0033
32.46,0.6861,-2.44,9.1151,-0.0962,0.0891,0.0167
32.48,0.6643,-2.2084,9.2194,-0.0915,0.0163,0.0331
32.5,0.8864,-2.3544,9.3772,-0.0121,0.0099,0.0174
32.52,1.1238,-2.2784,9.35,0.0176,-0.0446,0.0088
32.54,1.0306,-2.3118,9.3374,-0.0203,-0.0327,-0.009
32.56,0.9855,-2.3765,9.1833,-0.0385,0.0017,0.0157
32.58,1.0354,-2.3519,9.5028,0.0134,-0.0097,-0.0211
32.6,0.853,-2.478,9.018,-0.0223,0.0221,-0.0413
32.62,1.2455,-2.3108,9.3092,0.0244,0.0085,-0.0022
32.64,0.8915,-2.408,9.2469,0.0117,-0.0119,0.0119
32.66,1.2089,-2.3051,9.4869,0.0744,-0.0626,0.0287
32.68,0.9431,-2.3461,9.4252,0.0915,0.0564,0.0199
32.7,1.0395,-2.1753,9.3626,0.1305,0.1244,0.0141
32.72,0.9611,-2.5041,9.0911,0.1025,0.1364,-0.0308
32.74,1.3003,-2.4499,9.274,0.0622,0.1131,-0.0152
32.76,1.0494,-2.3389,8.7227,-0.083,-0.1547,-0.0631
32.78,0.866,-2.5745,8.6999,-0.1985,-0.3492,-0.0926
32.8,0.8275,-2.2032,8.7522,-0.3137,-0.4076,-0.1001
32.82,0.4262,-2.2197,9.3674,-0.3583,-0.1463,-0.143
32.84,0.5235,-2.1276,10.1167,-0.2292,0.2985,-0.0764
32.86,0.7386,-2.0952,11.2236,-0.0832,0.5641,-0.0232
32.88,1.0851,-1.8684,11.29,0.1354,0.5265,0.0633
32.9,1.9962,-1.7683,10.3511,0.3225,0.1239,0.1197
32.92,1.5847,-2.1621,9.0071,0.3639,-0.3135,0.1035
32.94,1.2865,-2.2155,8.818,0.259,-0.4212,0.1203
32.96,1.0567,-2.1411,9.0026,0.151,-0.3077,0.1287
32.98,1.2624,-2.3748,9.1409,0.0361,-0.0305,0.0806
33.0,1.3862,-2.2128,9.05,-0.0559,0.1538,0.0353
33.02,1.1346,-2.2465,9.4583,-0.0731,0.1831,-0.0314
33.04,0.8022,-2.2973,9.4486,-0.0659,0.0931,-0.0029
33.06,0.688,-2.2947,9.4089,-0.0859,-0.0518,-0.024
33.08,0.9885,-2.3383,9.5755,-0.0003,-0.0332,-0.0112
33.1,1.236,-2.4088,9.5083,-0.0014,-0.0285,-0.019
33.12,1.1133,-2.1818,9.2699,0.0382,-0.0314,-0.0177
33.14,1.0627,-2.243,9.5371,-0.0265,0.0048,-0.0227
33.16,1.2508,-2.4168,9.6137,0.0264,-0.0286,0.0132
33.18,0.95,-2.3313,9.2608,-0.0224,-0.018,-0.0053
33.2,1.0847,-2.2516,9.3825,-0.0209,-0.056,-0.0466
33.22,1.1204,-2.209,9.7212,0.0241,-0.0351,-0.0291
33.24,1.0795,-2.3497,9.5964,0.022,0.0038,-0.0339
33.26,1.1348,-2.3952,9.3395,0.0561,0.0669,-0.0312
33.28,1.4242,-2.1203,9.2993,0.1019,0.1286,-0.0229
33.3,1.4226,-2.3334,9.2882,0.1064,0.1359,0.0426
33.32,1.0242,-2.1609,9.0994,0.0021,-0.0343,0.0325
33.34,1.0259,-2.2269,8.951,-0.1339,-0.2686,0.11
33.36,0.9342,-2.1942,8.8146,-0.2475,-0.4257,0.1228
33.38,0.6953,-2.3869,8.8759,-0.3576,-0.3808,0.1175
33.4,0.5214,-2.5196,10.098,-0.3113,0.033,0.1497
33.42,1.0075,-2.731,11.4879,-0.1771,0.4511,0.0578
33.44,1.0132,-2.6404,11.5242,0.0705,0.64,-0.0138
33.46,1.5315,-2.4137,10.7636,0.2496,0.377,-0.1039
33.48,1.4128,-2.5384,9.0967,0.319,-0.0829,-0.1181
33.5,1.625,-2.2804,8.7781,0.329,-0.3779,-0.143
33.52,1.1684,-2.2799,9.0331,0.2344,-0.4317,-0.148
33.54,1.0699,-2.2029,8.7879,0.0676,-0.2028,-0.078
33.56,1.0595,-2.2448,8.656,-0.0316,0.0218,-0.0621
33.58,0.9404,-2.2722,9.1301,-0.077,0.1884,0.0038
33.6,1.0101,-2.053,9.2786,-0.045,0.1673,0.0418
33.62,0.9938,-2.3897,9.515,-0.0502,0.0451,0.0202
33.64,0.8723,-2.2382,9.4005,-0.0059,-0.0009,0.0611
33.66,0.947,-2.2014,9.5902,0.0128,-0.0513,0.0196
33.68,1.178,-2.4553,9.4289,0.0009,-0.0016,-0.0087
33.7,1.2473,-2.3002,9.5204,0.0163,-0.0483,0.0143
33.72,1.081,-2.3516,9.4242,-0.0014,-0.0236,0.0028
33.74,1.0035,-2.2211,9.2637,0.0004,-0.0292,0.0077
33.76,0.859,-2.3736,9.1703,-0.001,-0.0081,0.0175
33.78,1.2849,-2.1876,9.5952,0.0236,0.0178,0.0204
33.8,1.3909,-2.3623,9.773,0.0187,-0.0245,-0.0002
33.82,0.9546,-2.156,9.4175,0.0349,-0.0319,0.0344
33.84,0.8828,-2.2568,9.3515,0.0382,0.0067,0.0218
33.86,1.0391,-2.2143,9.3542,0.0979,0.0906,0.0187
33.88,1.0592,-2.2277,9.2557,0.1049,0.1481,0.0067
33.9,1.2091,-2.315,9.0175,0.0595,0.1031,-0.0222
33.92,0.9773,-2.6468,8.7147,-0.0212,-0.0187,-0.0261
33.94,0.5431,-2.5624,8.5893,-0.1865,-0.3144,-0.118
33.96,0.5665,-2.4525,8.6786,-0.2415,-0.4163,-0.1149
33.98,0.4762,-2.1414,8.7759,-0.3514,-0.3039,-0.1212
34.0,0.1594,-2.3768,9.7041,-0.348,0.0576,-0.1215
34.02,0.8222,-1.9962,11.1923,-0.1391,0.5122,-0.0282
34.04,0.863,-2.2267,10.9237,0.079,0.5861,0.0444
34.06,1.6929,-1.8839,10.7132,0.2836,0.3016,0.0758
34.08,1.4147,-2.189,8.9883,0.3109,-0.1578,0.0753
34.1,1.1667,-2.4706,8.6346,0.2875,-0.4199,0.0977
34.12,0.7998,-2.6224,8.6807,0.192,-0.4032,0.1061
34.14,1.3333,-2.5558,8.6801,0.0765,-0.1406,0.0556
34.16,0.8325,-2.5217,8.9504,-0.0154,0.0767,0.0378
34.18,0.8177,-2.5576,9.0991,-0.0754,0.1522,0.0009
34.2,0.7953,-2.5799,9.0788,-0.1152,0.0815,-0.0196
34.22,1.2563,-2.34,9.38,-0.0532,0.0284,-0.0213
34.24,0.9175,-2.3062,9.3964,-0.0127,-0.0169,-0.0481
34.26,1.2827,-2.0986,9.5882,-0.0191,-0.0371,-0.0085
34.28,0.949,-2.3086,9.3704,-0.0201,-0.0628,-0.0121
34.3,0.8869,-2.317,9.1281,-0.0175,-0.0483,-0.0318
34.32,0.9921,-1.9879,9.5833,0.0104,-0.0392,-0.0458
34.34,0.9404,-2.3458,9.1816,0.0395,-0.0514,-0.0266
34.36,1.0577,-2.0255,9.2329,0.0507,0.0426,-0.0181
34.38,0.9605,-2.4308,9.1646,0.1076,0.191,-0.0309
34.4,0.9616,-2.1985,8.8898,0.0819,0.1846,-0.0072
34.42,0.9808,-2.1311,8.7884,0.004,0.0243,0.0352
34.44,1.092,-2.4163,8.8956,-0.1369,-0.2522,0.0396
34.46,0.9087,-2.3133,8.8894,-0.2449,-0.3866,0.1053
34.48,0.5472,-2.3897,8.9106,-0.322,-0.3709,0.1231
34.5,0.5477,-2.7367,9.2716,-0.3055,-0.0507,0.1088
34.52,0.5647,-2.4568,10.9935,-0.2029,0.3505,0.076
34.54,1.1605,-2.742,11.8305,-0.0297,0.5764,0.0187
34.56,1.3129,-2.819,10.7473,0.1691,0.4117,-0.0549
34.58,1.7137,-2.579,9.6571,0.3098,0.043,-0.1297
34.6,1.7214,-2.4401,9.273,0.3701,-0.286,-0.1271
34.62,1.2636,-2.2681,8.8131,0.2636,-0.4473,-0.1327
34.64,1.2077,-2.0586,8.8645,0.1382,-0.2652,-0.1073
34.66,1.4199,-2.2728,8.8962,-0.0032,-0.0091,-0.0381
34.68,0.8374,-2.2368,9.031,-0.1054,0.1172,0.0043
34.7,1.0534,-2.1921,9.403,-0.059,0.1392,-0.0128
34.72,1.0257,-2.0568,9.525,-0.0495,0.1102,0.0325
34.74,1.1843,-2.0277,9.6863,0.0005,0.0179,0.0208
34.76,1.0428,-2.3303,9.6497,-0.0297,-0.0198,0.0428
34.78,1.0582,-2.4631,9.6272,0.0279,-0.0209,0.0187
34.8,1.1286,-2.1743,9.8647,-0.0128,-0.0276,-0.0059
34.82,1.1463,-2.3874,9.6209,-0.0057,-0.0248,-0.0108
34.84,0.9192,-2.3835,9.338,-0.0501,-0.0204,-0.0001
34.86,0.9164,-2.2048,9.6219,-0.0126,-0.0487,0.0492
34.88,0.9357,-2.3377,9.4358,-0.0104,-0.0767,-0.0006
34.9,1.3202,-2.4164,9.3851,0.0102,-0.044,0.0021
34.92,1.1013,-2.4812,9.4249,0.0734,-0.0028,-0.0007
34.94,1.1658,-2.2962,9.3091,0.0914,0.0843,0.0412
34.96,1.0168,-2.319,9.1407,0.0934,0.1963,-0.0127
34.98,1.0194,-2.5844,8.929,0.0523,0.1102,-0.036
35.0,1.0619,-2.4356,8.98,0.0248,-0.0648,-0.0169
35.02,1.0178,-2.4282,8.8295,-0.1617,-0.363,-0.0956
35.04,0.6525,-2.2581,8.6777,-0.3401,-0.4879,-0.1404
35.06,0.8801,-2.4841,8.9005,-0.3986,-0.2926,-0.1576
35.08,0.2995,-1.9799,9.9904,-0.3414,0.1427,-0.1645
35.1,0.5702,-2.0114,11.3954,-0.1137,0.5575,-0.0481
35.12,1.5926,-1.9185,12.1644,0.1343,0.635,0.0244
35.14,1.6277,-2.0017,10.7655,0.2834,0.2881,0.0844
35.16,1.759,-1.8817,9.1548,0.3783,-0.1881,0.1483
35.18,1.4485,-2.517,8.5323,0.3309,-0.4681,0.133
35.2,0.9214,-2.4975,8.7048,0.2366,-0.4354,0.1375
35.22,1.0721,-2.6037,9.1763,0.1249,-0.136,0.1152
35.24,1.0729,-2.4055,9.0187,-0.0403,0.0872,0.035
35.26,0.7705,-2.5592,9.3837,-0.0659,0.1851,0.0207
35.28,0.7989,-2.4644,9.2668,-0.0648,0.1358,0.0008
35.3,1.12,-2.3246,9.4146,-0.0485,0.0414,-0.0069
35.32,0.9039,-2.5594,9.305,-0.0165,-0.021,-0.0019
35.34,0.9535,-2.3671,9.2285,-0.0143,-0.0673,-0.0402
35.36,0.9792,-2.5066,9.301,0.0,-0.0274,-0.0099
35.38,1.2867,-2.2453,9.9891,0.0002,-0.0355,0.0056
35.4,1.0816,-2.2141,9.5254,0.0163,-0.01,0.0021
35.42,0.9667,-2.5476,9.3978,0.0496,-0.0124,-0.0012
35.44,1.1482,-2.726,9.4702,0.0942,0.0426,-0.0158
35.46,0.8558,-2.235,9.1675,0.0417,0.1237,-0.068
35.48,1.0739,-2.2587,9.0886,0.0871,0.136,0.0018
35.5,0.6441,-2.2396,8.903,0.0473,0.0553,0.0316
35.52,0.8075,-2.1529,8.9907,-0.0741,-0.1418,0.0607
35.54,0.5601,-2.4016,8.5482,-0.2293,-0.3957,0.0975
35.56,0.6988,-2.4291,8.7963,-0.2884,-0.3871,0.1244
35.58,0.3361,-2.4689,8.9616,-0.356,-0.1444,0.1051
35.6,0.4543,-2.5464,10.1606,-0.2875,0.2697,0.0967
35.62,0.6179,-2.7384,10.8179,-0.0684,0.5328,0.0188
35.64,1.1368,-2.6194,11.1091,0.1154,0.4488,-0.0276
35.66,1.6309,-2.6547,9.5567,0.2772,0.0756,-0.1001
35.68,1.2981,-2.5484,8.657,0.3514,-0.2782,-0.117
35.7,1.0269,-2.2986,8.6782,0.2566,-0.4391,-0.1332
35.72,1.1189,-2.2813,8.669,0.102,-0.3139,-0.0892
35.74,1.0073,-2.4411,8.5722,0.0124,-0.0636,-0.0697
35.76,0.8212,-2.067,8.7723,-0.0415,0.1561,-0.019
35.78,1.0528,-2.1744,8.8858,-0.1303,0.162,-0.0009
35.8,0.7818,-2.4633,9.0815,-0.0873,0.0857,0.035
35.82,0.8187,-2.266,9.2332,-0.0508,0.0187,0.0356
35.84,1.1067,-2.2533,9.6701,-0.0177,-0.0512,0.0402
35.86,0.9945,-2.3793,9.6655,-0.0161,-0.0117,0.013
35.88,0.9402,-2.0345,9.442,-0.0054,0.0,0.022
35.9,1.0627,-2.4259,9.2474,-0.0196,-0.0323,-0.0192
35.92,0.7982,-2.2362,9.4926,-0.0152,-0.0217,-0.0351
35.94,1.2457,-2.7866,9.2926,-0.0115,-0.0746,-0.0301
35.96,1.058,-1.983,9.4394,0.0549,0.0016,0.001
35.98,1.1728,-2.6549,9.3078,0.0941,0.0954,0.017
36.0,0.8964,-2.6983,8.9246,0.0795,0.1028,-0.0019
36.02,1.0286,-2.3156,9.0951,0.112,0.1461,-0.0134
36.04,0.9745,-2.4891,8.822,-0.0218,-0.0726,-0.0549
36.06,0.6475,-2.4774,8.4156,-0.159,-0.3353,-0.076
36.08,0.4786,-2.1126,8.8543,-0.2497,-0.4138,-0.1227
36.1,0.4256,-2.4709,8.8929,-0.3528,-0.2498,-0.1313
36.12,0.6976,-2.2443,9.9202,-0.3056,0.1217,-0.1008
36.14,0.5622,-2.0968,10.886,-0.1048,0.4848,-0.0463
36.16,1.3191,-1.8703,11.2811,0.0647,0.5208,0.0356
36.18,1.7648,-2.0654,10.5586,0.276,0.244,0.0792
36.2,1.7379,-2.0483,9.1732,0.3376,-0.1868,0.115
36.22,1.4623,-2.2944,8.6127,0.2747,-0.3908,0.1387
36.24,0.9564,-2.5735,8.7552,0.153,-0.3681,0.0957
36.26,0.9976,-2.6717,8.8269,0.0395,-0.1283,0.0545
36.28,1.083,-2.4289,9.2269,-0.0446,0.0792,0.073
36.3,0.9702,-2.4356,9.094,-0.1119,0.1675,0.0039
36.32,0.8739,-2.5936,9.2193,-0.0662,0.0929,-0.0492
36.34,1.1161,-2.2085,9.4239,-0.079,0.0258,-0.025
36.36,0.9948,-2.4355,9.6143,-0.0456,-0.0212,0.0038
36.38,1.101,-2.3587,9.8276,0.0192,-0.0206,0.007
36.4,1.1795,-2.2359,9.6603,0.0076,-0.0641,-0.0059
36.42,1.0926,-2.1795,9.8377,0.0331,-0.0277,-0.0097
36.44,1.2076,-2.1649,9.7682,0.0273,-0.0279,-0.0001
36.46,1.0464,-2.2628,9.5837,0.0381,-0.0309,-0.0348
36.48,1.0505,-2.2495,9.4915,0.0274,0.0321,0.0029
36.5,1.2547,-2.4092,9.263,0.0992,0.0901,-0.0106
36.52,1.1825,-2.4774,9.1347,0.1343,0.1311,-0.0183
36.54,0.9383,-2.1371,9.0523,0.0623,0.0928,-0.0103
36.56,1.1104,-2.5764,9.0967,-0.0037,-0.0561,0.0558
36.58,0.8946,-2.3008,8.9919,-0.1421,-0.3061,0.0683
36.6,0.7598,-2.3456,8.8069,-0.3055,-0.4194,0.1269
36.62,0.3001,-2.4739,9.108,-0.3395,-0.2305,0.1566
36.64,0.7262,-2.6089,10.3171,-0.2483,0.1424,0.0853
36.66,0.8769,-2.5972,10.985,-0.0661,0.5097,0.0602
36.68,1.168,-2.7028,11.1859,0.0795,0.5384,-0.0164
36.7,1.4859,-2.4474,10.309,0.2307,0.1945,-0.0706
36.72,1.6223,-2.5862,9.3655,0.3476,-0.2019,-0.1532
36.74,1.357,-2.4883,9.102,0.3078,-0.3865,-0.0684
36.76,0.9429,-2.5826,8.9668,0.1701,-0.3369,-0.1271
36.78,1.1167,-2.3006,9.1203,0.0605,-0.1081,-0.0811
36.8,1.1502,-2.0606,9.423,0.0104,0.1388,-0.0217
36.82,0.9545,-2.2597,9.2095,-0.0829,0.1638,0.007
36.84,1.11,-2.2485,9.4145,-0.0991,0.0893,-0.0016
36.86,1.1797,-2.3202,9.4483,-0.0492,0.0535,0.0282
36.88,0.845,-2.4765,9.7852,0.0094,-0.0061,-0.0045
36.9,0.8906,-2.2112,9.4249,-0.0386,-0.0239,-0.0067
36.92,1.1268,-2.2608,9.3749,0.0186,-0.0405,-0.0117
36.94,0.9139,-2.1237,9.2629,0.0222,-0.0411,-0.0053
36.96,0.8351,-2.3979,9.3755,-0.0014,-0.033,0.0401
36.98,1.2344,-2.2247,9.5513,0.0678,0.021,0.0147
37.0,1.0106,-2.4185,8.9111,0.1112,0.0483,-0.018
37.02,0.8196,-2.2837,9.1109,0.1057,0.0962,-0.0027
37.04,0.9519,-2.6641,9.0905,0.0984,0.1417,-0.0341
37.06,0.8969,-2.4594,8.9051,0.0037,-0.0292,-0.0699
37.08,0.9783,-2.3479,8.47,-0.1407,-0.2939,-0.0498
37.1,0.7566,-2.483,9.1722,-0.2419,-0.4147,-0.0974
37.12,0.3811,-2.2979,8.6777,-0.3587,-0.342,-0.1678
37.14,0.415,-2.4122,9.6599,-0.286,0.0446,-0.068
37.16,0.8473,-2.1382,11.0545,-0.1592,0.4815,-0.0761
37.18,1.0859,-2.046,11.1728,0.0544,0.5611,0.0207
37.2,0.8687,-2.2424,10.0284,0.2128,0.2896,0.0649
37.22,1.4732,-2.0354,9.3407,0.3547,-0.1033,0.115
37.24,1.3726,-1.9377,8.7441,0.347,-0.3664,0.1208
37.26,1.2523,-2.4701,8.7729,0.2305,-0.4025,0.12
37.28,0.8943,-2.6245,8.9093,0.086,-0.2037,0.0546
37.3,0.8433,-2.5934,8.8062,-0.002,0.0084,0.0145
37.32,0.7177,-2.6645,8.9922,-0.068,0.1449,0.016
37.34,0.8618,-2.2866,9.1217,-0.0674,0.1326,-0.0352
37.36,0.8319,-2.2376,9.2587,-0.075,0.0391,-0.0083
37.38,0.7997,-2.3719,9.3261,-0.0464,-0.0029,-0.0172
37.4,0.6549,-2.0427,9.199,-0.0448,-0.0319,-0.0357
37.42,0.9545,-2.3498,9.2373,-0.0179,-0.0531,-0.0094
37.44,0.8545,-2.4691,9.1908,0.0151,-0.0027,0.0162
37.46,1.1631,-2.1851,9.2856,-0.0012,0.0447,0.0175
37.48,0.7217,-2.6975,9.0726,-0.0041,-0.0179,-0.018
37.5,0.9904,-2.2728,9.5109,0.0324,-0.0092,-0.0051
37.52,1.1381,-2.452,9.7269,0.0782,-0.0184,0.0451
37.54,1.0711,-2.2592,9.458,0.0246,-0.014,-0.0215
37.56,0.9978,-2.2271,9.6575,0.0906,0.039,-0.0291
37.58,1.1655,-2.0858,8.9742,0.0956,0.1066,-0.0171
37.6,0.9554,-2.5057,8.9174,0.0794,0.1546,0.006
37.62,0.739,-2.346,8.8346,0.0544,0.1097,0.0029
37.64,0.7555,-2.1835,8.7072,-0.0261,-0.1079,0.0537
37.66,0.8219,-2.0737,8.8058,-0.1752,-0.3749,0.0796
37.68,0.7244,-2.3381,8.596,-0.3304,-0.5173,0.1076
37.7,0.304,-2.6348,9.1441,-0.3818,-0.239,0.1392
37.72,0.0003,-2.7963,9.639,-0.3297,0.2014,0.0938
37.74,0.6862,-2.7405,11.5901,-0.0978,0.5954,0.0428
37.76,1.3612,-2.6768,11.4889,0.1104,0.5824,-0.0519
37.78,1.6274,-2.6058,10.0276,0.2983,0.2369,-0.0906
37.8,1.7843,-2.2648,9.2858,0.4055,-0.2312,-0.1438
37.82,1.2944,-2.4585,8.7842,0.3413,-0.475,-0.1326
37.84,1.2504,-2.4132,8.9584,0.2197,-0.3704,-0.0981
37.86,0.9184,-2.2745,8.8847,0.0484,-0.1001,-0.0733
37.88,1.1152,-2.2604,9.0759,-0.0502,0.1111,-0.0509
37.9,1.0115,-2.4106,9.1384,-0.1042,0.1605,-0.026
37.92,0.6939,-2.3527,9.3107,-0.1093,0.1195,0.0199
37.94,1.0556,-2.1271,9.2972,-0.089,0.0025,-0.0072
37.96,0.7536,-2.2054,9.4228,-0.0116,-0.027,0.0173
37.98,1.0961,-2.4015,9.4866,0.0164,-0.0591,-0.0228
38.0,1.0878,-2.3826,9.5421,0.0124,-0.0171,-0.0042
38.02,0.982,-2.5056,9.338,0.0259,-0.0059,0.0115
38.04,1.3433,-2.2545,9.6859,-0.0105,0.0338,-0.0181
38.06,0.9446,-2.2404,9.5312,0.022,-0.0184,-0.0091
38.08,0.9826,-2.1968,9.8945,0.028,-0.0022,-0.0109
38.1,1.1392,-2.3671,9.536,-0.0019,-0.0767,-0.0052
38.12,1.0695,-2.1378,9.5792,-0.002,-0.0294,0.0277
38.14,1.4114,-2.0624,9.7289,0.0845,-0.0237,0.0008
38.16,1.1546,-2.6019,9.5649,0.1053,0.1179,0.0443
38.18,1.4894,-2.422,9.2011,0.1106,0.1135,-0.0177
38.2,1.2993,-2.4003,9.3975,0.0877,0.1189,-0.0139
38.22,1.006,-2.6206,8.9969,-0.013,-0.049,-0.0653
38.24,0.9063,-2.3054,9.276,-0.1245,-0.3063,-0.0957
38.26,0.7139,-2.3296,8.8212,-0.2776,-0.4954,-0.1248
38.28,0.7636,-2.1466,9.2429,-0.2909,-0.3242,-0.1058
38.3,0.5659,-2.2317,9.8103,-0.3342,0.0559,-0.0843
38.32,0.6622,-2.0435,10.9692,-0.1347,0.4887,-0.0523
38.34,1.0784,-1.8442,11.7602,0.0723,0.6164,0.0234
38.36,1.2791,-1.7873,10.4712,0.2122,0.3443,0.0674
38.38,1.59,-2.3239,9.3039,0.3902,-0.1011,0.0967
38.4,1.342,-2.5866,9.0691,0.3527,-0.4037,0.1249
38.42,1.2091,-2.379,9.0253,0.2547,-0.4064,0.1118
38.44,1.235,-2.4019,8.9275,0.0998,-0.202,0.0668
38.46,1.1064,-2.3707,8.7328,-0.0567,0.0439,0.0442
38.48,0.7033,-2.3931,8.9955,-0.09,0.1466,-0.0337
38.5,0.8927,-2.444,9.282,-0.0895,0.149,-0.0046
38.52,0.8221,-2.358,9.3861,-0.0623,0.043,-0.035
38.54,0.8843,-2.4188,9.4355,-0.0026,-0.0023,-0.0093
38.56,0.8036,-2.3081,9.3937,0.0125,-0.0255,0.0177
38.58,1.1508,-2.1663,9.4904,0.0403,-0.0152,-0.0183
38.6,1.1541,-2.1804,9.5612,0.0115,-0.0091,0.0168
38.62,1.0021,-2.545,9.5111,0.0566,-0.0071,0.0517
38.64,0.8383,-2.4609,9.2443,-0.0051,0.0106,-0.001
38.66,0.8286,-2.2395,9.2312,-0.0145,-0.0483,-0.0232
38.68,0.9445,-2.2443,9.7012,0.0254,-0.0031,-0.0376
38.7,0.9724,-2.1741,9.2502,0.0418,0.0368,-0.0025
38.72,0.9656,-2.3076,9.2927,0.0842,0.0994,-0.029
38.74,0.9097,-2.1009,9.1022,0.1091,0.1817,-0.0024
38.76,0.7959,-2.2412,8.9939,0.0733,0.1445,0.0359
38.78,0.9216,-2.3321,8.6258,-0.0511,-0.1168,0.0505
38.8,0.5253,-2.5759,8.4555,-0.2511,-0.3874,0.0756
38.82,0.575,-2.3644,8.6847,-0.2999,-0.4659,0.1366
38.84,0.3845,-2.7001,8.908,-0.3942,-0.2285,0.1345
38.86,0.5638,-2.6386,10.3938,-0.2465,0.228,0.1046
38.88,0.7568,-2.6986,11.2905,-0.1164,0.5492,0.045
38.9,1.0772,-2.79,10.9975,0.1339,0.581,-0.0426
38.92,1.3906,-2.4952,9.8596,0.3186,0.2349,-0.0835
38.94,1.6671,-2.399,9.2316,0.3732,-0.2219,-0.1372
38.96,1.0954,-2.5779,8.6101,0.3005,-0.4506,-0.1383
38.98,1.0338,-2.469,8.6218,0.1865,-0.3656,-0.0696
39.0,0.9093,-2.2184,8.9579,0.0665,-0.1189,-0.0798
39.02,0.4051,-2.4821,8.8402,-0.0901,0.1144,-0.0381
39.04,0.7017,-2.2097,9.0493,-0.1113,0.1614,0.0203
39.06,0.9484,-2.3398,9.3408,-0.0473,0.1153,0.0394
39.08,0.7599,-2.328,9.2409,-0.0184,0.0013,0.0394
39.1,0.9954,-2.2625,9.4895,-0.0075,-0.0229,-0.0127
39.12,1.1165,-2.365,9.6069,0.0235,-0.0239,0.0305
39.14,1.1595,-2.3298,9.7187,0.0599,0.0166,0.0072
39.16,1.1068,-2.5088,9.3959,0.0019,-0.0281,-0.0042
39.18,0.9383,-2.0392,9.6281,0.0544,-0.0219,0.0275
39.2,0.9056,-2.3412,9.2708,0.0617,-0.0828,0.0037
39.22,0.9147,-2.5593,9.1879,0.0718,-0.0173,0.0307
39.24,0.7886,-2.4439,9.1779,0.0556,0.0778,0.0223
39.26,0.9289,-2.7212,9.0187,0.1034,0.1459,0.0226
39.28,0.9823,-2.6157,9.0342,0.0441,0.1536,-0.0267
39.3,1.0612,-2.4399,9.075,0.0392,-0.0143,-0.0607
39.32,1.0137,-2.6312,8.7926,-0.1226,-0.2612,-0.1226
39.34,0.6783,-2.4101,8.7051,-0.245,-0.4283,-0.117
39.36,0.7497,-2.1411,9.1176,-0.363,-0.2981,-0.1317
39.38,0.3235,-2.0971,9.5441,-0.3413,-0.0085,-0.104
39.4,0.8254,-2.1383,11.0286,-0.1539,0.448,-0.0486
39.42,0.8286,-2.0072,11.2493,0.1037,0.5962,0.0289
39.44,1.1873,-2.1204,10.2857,0.2368,0.3562,0.0681
39.46,1.3404,-2.24,9.2215,0.3278,-0.0983,0.1268
39.48,1.3483,-2.1547,8.8679,0.3208,-0.3822,0.1527
39.5,1.3002,-2.3334,8.9496,0.2489,-0.4355,0.1134
39.52,1.0199,-2.4477,9.0972,0.0816,-0.1583,0.0915
39.54,1.0523,-2.2294,9.1057,-0.0223,0.0017,0.0459
39.56,0.9807,-2.3407,9.1247,-0.0639,0.1738,0.0064
39.58,0.9727,-2.2857,9.5727,-0.0456,0.1358,0.0126
39.6,0.8171,-2.3805,9.4517,-0.0594,0.0138,-0.0453
39.62,1.0175,-2.4109,9.5412,-0.0438,-0.0325,-0.0195
39.64,0.9715,-2.4073,9.6464,-0.0523,-0.08,-0.028
39.66,1.1658,-2.3311,9.9125,0.0463,-0.0049,0.0203
39.68,1.0793,-2.5182,9.4772,-0.0163,-0.0469,-0.0332
39.7,0.9603,-2.4285,9.4427,-0.0123,-0.0494,-0.0114
39.72,1.2636,-2.2359,9.8409,0.02,-0.0292,-0.015
39.74,1.2027,-2.4093,9.7781,0.1136,-0.0462,-0.0263
39.76,1.1842,-2.4202,9.4204,0.0624,0.0247,-0.0102
39.78,1.3342,-2.1286,9.4256,0.1188,0.1279,-0.0034
39.8,0.8543,-2.4132,9.2836,0.0866,0.1258,-0.009
39.82,1.0125,-2.307,9.0978,0.044,0.0326,0.0176
39.84,1.0661,-2.1088,9.0595,-0.0871,-0.1953,0.0884
39.86,0.6974,-2.3119,9.0253,-0.2027,-0.3882,0.1202
39.88,0.7577,-2.1468,9.1444,-0.3332,-0.3946,0.1432
39.9,0.5489,-2.3832,9.2934,-0.3492,-0.1132,0.1138
39.92,0.7929,-2.4465,10.6053,-0.2446,0.2806,0.0979
39.94,0.9118,-2.2891,11.2831,-0.0588,0.5742,0.0138
39.96,1.426,-2.6236,10.9325,0.1724,0.4754,-0.0655
39.98,1.5237,-2.5045,9.9319,0.3286,0.089,-0.0881
40.0,1.3999,-2.4505,9.0114,0.3612,-0.3895,-0.1521
40.02,1.2052,-2.554,9.008,0.2886,-0.4637,-0.1206
40.04,0.9248,-2.2759,8.7521,0.1429,-0.2963,-0.1053
40.06,1.0358,-2.0973,9.1398,0.0152,-0.055,-0.0488
40.08,1.1025,-2.0975,9.331,-0.0434,0.1452,0.0048
40.1,0.9831,-2.301,9.0975,-0.0878,0.1627,-0.0243
40.12,0.6846,-2.3231,9.2109,-0.0785,0.0534,0.0173
40.14,0.7915,-2.2924,9.4292,-0.0531,-0.0127,0.0086
40.16,1.0472,-2.403,9.3684,-0.0177,-0.0605,0.0149
40.18,0.7275,-2.2163,9.2979,0.007,-0.0401,-0.0265
40.2,0.9339,-2.3622,9.4136,-0.0135,-0.0238,0.0077
40.22,0.942,-2.4014,9.44,-0.0042,0.0022,0.0015
40.24,0.9519,-2.3206,9.2821,0.0198,-0.008,0.0108
40.26,1.0725,-2.502,9.3163,-0.0166,-0.0199,-0.0173
40.28,0.8098,-2.5443,9.4992,0.0005,-0.0066,0.0465
40.3,0.9384,-2.3621,9.4785,0.0495,-0.0354,0.0085
40.32,1.1417,-2.3824,9.2633,0.0868,0.0118,0.047
40.34,0.9015,-2.2856,9.0888,0.1103,0.1258,-0.0217
40.36,0.837,-2.4154,9.1264,0.0867,0.1652,0.0196
40.38,0.8195,-2.6421,8.9128,0.0308,0.032,-0.014
40.4,1.0343,-2.5218,8.9851,-0.0555,-0.1757,-0.0661
40.42,0.8313,-2.3964,8.9338,-0.1946,-0.4239,-0.0849
40.44,0.5962,-2.2723,8.9241,-0.311,-0.3873,-0.1064
40.46,0.211,-2.1986,9.3035,-0.3472,-0.1304,-0.1117
40.48,0.154,-2.2529,9.8651,-0.1981,0.3145,-0.0921
40.5,0.9968,-2.2197,11.1369,-0.0177,0.5688,-0.0149
40.52,1.1448,-2.0184,10.706,0.1283,0.4209,0.0256
40.54,1.2555,-2.2296,9.5141,0.3348,0.0503,0.1097
40.56,1.1293,-2.44,8.9234,0.3623,-0.2984,0.1103
40.58,1.1091,-2.2978,8.9653,0.275,-0.3929,0.0898
40.6,0.8842,-2.3918,8.6281,0.1078,-0.3158,0.0558
40.62,0.9543,-2.5708,8.9034,0.0478,-0.0659,0.0553
40.64,0.899,-2.6007,8.9628,-0.0755,0.1471,0.0195
40.66,0.9922,-2.3147,9.2541,-0.0631,0.1497,-0.0007
40.68,0.7616,-2.4447,9.2056,-0.0907,0.0617,-0.0102
40.7,0.9184,-2.3921,9.4063,-0.0585,0.0117,-0.0351
40.72,1.0915,-2.3998,9.4692,-0.0045,-0.0459,0.0091
40.74,0.9369,-2.3727,9.5108,0.0183,-0.0151,-0.0094
40.76,1.0249,-2.2197,9.3716,0.0421,0.004,0.0165
40.78,0.8506,-2.5066,9.2161,-0.01,-0.0191,-0.0101
40.8,0.8791,-2.2555,9.3862,0.0048,-0.0003,0.0124
40.82,0.9055,-2.5755,9.248,-0.0102,-0.0095,0.0111
40.84,1.0748,-2.4849,9.5416,0.0258,-0.0388,-0.0195
40.86,1.1224,-2.2372,9.6059,0.0193,0.0262,-0.0134
40.88,1.0605,-2.1874,9.5253,0.0637,0.0124,-0.0068
40.9,1.1331,-2.4703,9.2993,0.0778,0.0644,-0.0101
40.92,1.0787,-2.2386,9.2883,0.1642,0.1184,0.0016
40.94,1.0821,-2.4648,9.4344,0.0768,0.1815,0.0487
40.96,1.0891,-2.1287,9.1605,0.0296,-0.0176,0.0452
40.98,0.943,-2.0457,8.9176,-0.0718,-0.2229,0.1097
41.0,0.821,-2.2933,8.9311,-0.2438,-0.4197,0.1083
41.02,0.5529,-2.4896,8.8714,-0.3349,-0.3394,0.0872
41.04,0.4703,-2.5178,9.4657,-0.3397,-0.017,0.0808
41.06,0.6283,-2.6502,10.6261,-0.1966,0.4327,0.0665
41.08,0.9731,-2.6609,11.0195,0.0295,0.6098,0.0017
41.1,1.3957,-2.5685,10.7159,0.2088,0.3839,-0.0762
41.12,1.4005,-2.4784,9.6012,0.3273,-0.0646,-0.0979
41.14,1.3843,-2.4545,8.8798,0.3055,-0.3698,-0.1474
41.16,1.0859,-2.5221,8.6777,0.2409,-0.408,-0.1166
41.18,1.1091,-2.1438,8.9649,0.094,-0.1993,-0.1135
41.2,0.8169,-2.2849,8.9731,-0.0243,0.0378,-0.0103
41.22,1.0552,-2.2864,9.2442,-0.0609,0.1299,-0.0403
41.24,0.9584,-2.0952,9.3039,-0.0732,0.1451,-0.0004
41.26,0.9057,-2.3148,9.1558,-0.0953,0.0411,-0.011
41.28,0.9745,-2.3322,9.5349,-0.0162,-0.0122,0.0151
41.3,1.0511,-2.4472,9.5269,-0.0226,-0.0758,0.0162
41.32,1.0386,-2.1156,9.6807,0.0617,-0.038,0.0101
41.34,1.0376,-2.3415,9.7642,0.0325,-0.0184,0.0248
41.36,1.025,-2.334,9.7168,-0.0049,-0.0266,-0.0143
41.38,1.1042,-2.1211,9.6189,0.0623,-0.0034,0.0153
41.4,1.0925,-2.3228,9.533,0.0927,0.0471,-0.0386
41.42,1.068,-2.317,9.3054,0.0951,0.1469,0.0202
41.44,1.3609,-2.3058,9.3086,0.14,0.192,0.0155
41.46,1.0054,-2.3164,8.9829,-0.007,0.0413,-0.0669
41.48,1.0773,-2.3391,9.1347,-0.0416,-0.174,-0.0634
41.5,1.1065,-2.3835,9.156,-0.1854,-0.4408,-0.1161
41.52,0.9162,-2.3132,9.0738,-0.3059,-0.428,-0.1406
41.54,0.7265,-2.0384,9.4126,-0.3468,-0.1246,-0.1291
41.56,0.6233,-2.0871,10.6393,-0.242,0.3201,-0.0957
41.58,0.9843,-2.1334,11.4275,-0.0564,0.638,-0.0113
41.6,1.1103,-2.1015,10.6528,0.1602,0.4889,0.0603
41.62,1.6006,-2.1705,10.0849,0.3655,0.0773,0.1251
41.64,1.3886,-2.1015,9.2054,0.3974,-0.3195,0.1141
41.66,1.1884,-2.4978,8.8349,0.319,-0.4704,0.104
41.68,1.1179,-2.3303,8.8668,0.1347,-0.3097,0.09
41.7,1.0745,-2.4542,8.9595,0.0205,-0.0178,0.0703
41.72,1.0652,-2.4232,9.2274,-0.0737,0.1116,0.0002
41.74,0.6381,-2.3809,9.097,-0.1205,0.1517,-0.0174
41.76,0.6882,-2.4915,9.131,-0.0994,0.0871,-0.0212
41.78,0.7379,-2.4065,9.2597,-0.0528,-0.0071,-0.0108
41.8,0.786,-2.2299,9.6504,0.0368,-0.0189,0.0023
41.82,1.0427,-2.2576,9.7351,0.0339,-0.0266,0.0119
41.84,1.003,-2.3273,9.6311,0.0351,-0.0194,-0.0063
41.86,1.0725,-2.2002,9.4663,0.0222,0.0109,-0.0043
41.88,1.0521,-2.3974,9.3201,0.0289,-0.0175,-0.0176
41.9,0.9564,-2.2265,9.431,0.0224,-0.077,-0.0234
41.92,0.7936,-2.5575,9.0398,0.0204,-0.0452,-0.0355
41.94,1.0728,-2.2154,9.2686,0.0617,0.0914,0.0001
41.96,0.9517,-2.2284,9.1861,0.0803,0.1922,-0.0052
41.98,1.0978,-2.4788,8.9058,0.0907,0.1073,0.0067
42.0,0.8198,-2.1588,8.9931,-0.0698,-0.1095,0.0532
42.02,0.7156,-2.4129,8.5556,-0.1676,-0.3743,0.1083
42.04,0.246,-2.4361,8.5137,-0.3474,-0.4451,0.0841
42.06,0.4904,-2.4081,9.2051,-0.3501,-0.2207,0.1312
42.08,0.2422,-2.4544,9.9545,-0.3395,0.1784,0.0806
42.1,1.0244,-2.3103,10.9449,-0.112,0.5535,0.0587
42.12,0.8358,-2.9531,10.8524,0.1279,0.5409,-0.0151
42.14,1.0125,-2.4268,9.832,0.2945,0.1719,-0.1071
42.16,1.3924,-2.5322,9.0629,0.3683,-0.2066,-0.1348
42.18,1.0515,-2.2571,8.6935,0.2746,-0.4605,-0.0939
42.2,0.8511,-2.2629,9.0159,0.226,-0.3162,-0.1212
42.22,0.9661,-2.1308,9.0406,0.0844,-0.1028,-0.0587
42.24,0.612,-2.3384,8.6285,-0.074,0.1003,-0.0305
42.26,0.9058,-2.2433,9.3595,-0.0356,0.1635,0.0199
42.28,0.7001,-2.3917,9.1109,-0.1356,0.1262,-0.0112
42.3,0.7895,-2.2239,9.3841,-0.0496,-0.0087,0.0355
42.32,0.841,-2.291,9.4102,-0.0089,-0.0086,0.0313
42.34,1.0761,-2.3255,9.6751,-0.0049,-0.0138,0.0253
42.36,0.8947,-2.34,9.2891,-0.0017,-0.0542,-0.0292
42.38,0.8794,-2.5082,9.1864,-0.0012,-0.018,-0.0274
42.4,0.7866,-2.328,9.4686,0.0426,0.0075,0.0263
42.42,1.0096,-2.1243,9.3388,0.0105,-0.0083,-0.0204
42.44,0.9375,-2.5087,9.4677,0.0428,0.0014,0.0095
42.46,0.7349,-2.6731,9.3875,-0.0117,-0.0204,-0.0018
42.48,1.0249,-2.085,9.5063,0.0512,0.0005,0.0046
42.5,0.9684,-2.3062,9.2501,-0.0001,-0.0159,0.0165
42.52,0.8512,-2.4075,9.4583,0.0327,-0.0213,-0.0328
42.54,1.0266,-2.1576,9.3599,0.0506,0.0334,0.0237
42.56,0.8311,-2.3635,9.4928,-0.006,-0.0492,0.0015
42.58,0.8678,-2.3992,9.424,-0.0102,-0.0002,-0.0291
42.6,0.8838,-2.3025,9.3884,-0.0087,-0.0239,-0.0029
42.62,1.1813,-2.4463,9.4505,0.0459,-0.0184,0.0009
42.64,1.2346,-2.2401,9.2885,0.0408,-0.0033,-0.0041
42.66,0.8096,-2.4062,9.3424,-0.018,-0.0357,-0.0028
42.68,1.137,-2.0445,9.6108,0.0168,0.0251,0.0094
42.7,0.9158,-2.1296,9.4011,-0.0085,-0.0319,-0.0068
42.72,1.2844,-2.2405,9.5895,0.0358,-0.0094,-0.036
42.74,1.0606,-2.1601,9.5586,0.0228,0.0053,0.002
42.76,1.1074,-2.2834,9.5343,0.0291,0.0071,0.0149
42.78,1.1203,-2.4612,9.4269,0.0186,-0.0165,-0.0157
42.8,1.0975,-2.324,9.5814,0.0306,-0.0096,0.011
42.82,1.1441,-2.2159,9.4734,-0.0153,-0.031,-0.0028
42.84,1.2207,-2.2293,9.5087,-0.0221,0.0114,-0.0181
42.86,1.1162,-2.0975,9.6023,-0.0013,-0.0047,0.0039
42.88,1.1685,-2.2767,9.394,-0.0159,-0.0042,-0.0297
42.9,1.2596,-2.3064,9.7134,0.0136,-0.0078,0.0202
42.92,1.2219,-2.3163,9.4625,0.0271,0.0148,0.01
42.94,1.0079,-2.2873,9.5549,0.0248,-0.0026,0.0089
42.96,0.9694,-2.4381,9.4247,-0.0176,-0.0114,-0.0156
42.98,1.0137,-2.261,9.51,0.0252,0.0113,0.0301
43.0,1.0334,-2.3127,9.274,0.0178,0.0087,0.0079
43.02,1.1459,-2.0964,9.4195,0.0257,0.0083,0.0186
43.04,1.0061,-1.9739,9.4925,0.0172,0.0082,0.0102
43.06,0.9663,-2.3936,9.4835,0.0353,0.0221,0.0012
43.08,1.2198,-2.4276,9.687,0.0368,0.0225,0.0036
43.1,0.9888,-2.3833,9.2728,-0.0051,-0.0045,0.0018
43.12,0.7933,-2.5239,9.2765,-0.0142,-0.0097,-0.0252
43.14,1.1082,-2.3844,9.5345,0.0163,0.0099,0.0163
43.16,1.2255,-2.2234,9.6755,0.0289,0.0246,0.0088
43.18,0.9088,-2.4132,9.2288,-0.0183,-0.0146,-0.0162
43.2,0.825,-2.3096,9.2864,-0.0026,-0.0081,-0.0109
43.22,0.9387,-2.2918,9.4669,0.0032,-0.0003,0.0075
43.24,1.028,-2.3786,9.4775,-0.0021,0.0193,0.0051
43.26,1.2535,-2.3424,9.5809,0.0215,0.0245,0.0154
43.28,1.0693,-2.2642,9.4873,0.0081,0.0064,0.0104
43.3,0.8522,-2.3562,9.2903,0.0088,0.0041,-0.0035
43.32,1.0379,-2.2771,9.5377,0.012,0.001,0.0043
43.34,1.0123,-2.2135,9.4296,0.012,0.0062,0.0077
43.36,1.1318,-2.2158,9.5093,0.0261,0.0059,0.0137
43.38,0.9021,-2.3403,9.3255,-0.0045,-0.01,-0.0022
43.4,0.8967,-2.411,9.4394,0.0024,0.001,0.002
43.42,0.97,-2.2949,9.3338,-0.0032,-0.0036,-0.0066
43.44,0.9243,-2.3482,9.3785,-0.0019,-0.0023,-0.0022
43.46,1.0823,-2.2806,9.5008,0.0163,0.0128,0.0047
43.48,1.0253,-2.3616,9.3498,-0.0008,-0.0083,-0.0009
43.5,1.0039,-2.3316,9.3785,-0.0024,-0.0072,-0.0023
43.52,0.9452,-2.3786,9.3799,-0.0136,-0.0114,-0.0062
43.54,1.0078,-2.3247,9.4818,0.0092,0.0039,0.0036
43.56,1.0923,-2.2165,9.4784,0.0152,0.0095,0.0065
43.58,1.0255,-2.2848,9.4082,0.0035,0.0035,0.0017
43.6,1.0774,-2.265,9.5529,0.0264,0.0194,0.0131
43.62,0.9435,-2.3384,9.2434,-0.0236,-0.0177,-0.0118
43.64,0.9628,-2.3082,9.4013,0.0123,0.0092,0.0061
43.66,0.9813,-2.3504,9.3125,-0.0165,-0.0123,-0.0082
43.68,1.2056,-2.2884,9.4646,0.018,0.0135,0.009
43.7,1.0396,-2.3652,9.392,-0.002,-0.0015,-0.001
43.72,0.9327,-2.3665,9.2723,-0.0134,-0.01,-0.0067
43.74,1.1243,-2.2255,9.5713,0.0273,0.0205,0.0137
43.76,0.9588,-2.3153,9.4033,-0.001,-0.0008,-0.0005
43.78,1.0273,-2.2902,9.444,0.0078,0.0059,0.0039
43.8,0.9753,-2.4575,9.3817,-0.0096,-0.0072,-0.0048
43.82,0.9317,-2.3607,9.3976,-0.0013,-0.0009,-0.0006
43.84,0.991,-2.3115,9.4306,-0.0006,-0.0005,-0.0003
43.86,1.0407,-2.2895,9.443,0.0074,0.0055,0.0037
43.88,1.0107,-2.258,9.4104,0.0012,0.0009,0.0006
43.9,1.0837,-2.2935,9.4949,0.0132,0.0099,0.0066
43.92,0.8768,-2.3167,9.2917,-0.0179,-0.0134,-0.009
43.94,0.9804,-2.2932,9.4771,0.0032,0.0024,0.0016
43.96,0.9759,-2.295,9.3257,-0.0046,-0.0034,-0.0023
43.98,0.9691,-2.2619,9.4361,0.015,0.0112,0.0075
44.0,1.0847,-2.2124,9.5409,0.0096,0.0072,0.0048
44.02,1.1624,-2.3212,9.5398,0.0263,0.0197,0.0131
44.04,1.1603,-2.2617,9.5266,0.0206,0.0155,0.0103
44.06,0.9569,-2.3143,9.4875,0.0107,0.008,0.0053
44.08,0.7911,-2.3435,9.2282,-0.0301,-0.0226,-0.0151
44.1,1.0857,-2.2757,9.5195,0.0119,0.009,0.006
44.12,0.8778,-2.3874,9.2466,-0.0254,-0.019,-0.0127
44.14,1.151,-2.3226,9.4984,0.013,0.0098,0.0065
44.16,0.9642,-2.3061,9.4134,-0.0072,-0.0054,-0.0036
44.18,0.8522,-2.3549,9.2586,-0.0168,-0.0126,-0.0084
44.2,1.0243,-2.3652,9.4017,0.0034,0.0026,0.0017
44.22,1.0197,-2.3225,9.4439,0.0108,0.0081,0.0054
44.24,1.1661,-2.2216,9.5705,0.0276,0.0207,0.0138
44.26,1.1961,-2.1634,9.5578,0.0259,0.0194,0.013
44.28,0.9006,-2.3647,9.3578,-0.0036,-0.0027,-0.0018
44.3,1.0189,-2.3576,9.4407,0.0068,0.0051,0.0034
44.32,0.9853,-2.4276,9.3895,-0.007,-0.0052,-0.0035
44.34,0.9629,-2.2477,9.3978,0.0024,0.0018,0.0012
44.36,1.0398,-2.3212,9.3545,0.0079,0.0059,0.004
44.38,0.8846,-2.359,9.2761,-0.0217,-0.0162,-0.0108
44.4,1.099,-2.2146,9.4417,0.012,0.009,0.006
44.42,1.1074,-2.334,9.3895,-0.0077,-0.0058,-0.0039
44.44,0.833,-2.2778,9.3406,-0.0062,-0.0047,-0.0031
44.46,0.9742,-2.3209,9.3441,-0.0031,-0.0023,-0.0015
44.48,1.0005,-2.3236,9.4004,0.0079,0.0059,0.0039
44.5,1.0222,-2.3186,9.4016,-0.0088,-0.0066,-0.0044
44.52,1.0114,-2.2644,9.4914,0.0054,0.004,0.0027
44.54,1.0258,-2.3693,9.3925,-0.0015,-0.0012,-0.0008
44.56,0.9535,-2.3964,9.3499,-0.0096,-0.0072,-0.0048
44.58,1.1498,-2.2705,9.4683,0.0124,0.0093,0.0062
44.6,0.9971,-2.3507,9.4308,0.0044,0.0033,0.0022
44.62,0.9691,-2.2593,9.5402,0.0238,0.0178,0.0119
44.64,0.8298,-2.4181,9.2989,-0.0173,-0.013,-0.0086
44.66,0.9898,-2.2445,9.5265,0.0051,0.0038,0.0026
44.68,0.9466,-2.3559,9.3335,-0.0101,-0.0076,-0.005
44.7,1.0972,-2.2893,9.3724,0.001,0.0008,0.0005
44.72,0.969,-2.226,9.3495,-0.0022,-0.0016,-0.0011
44.74,1.2312,-2.3801,9.4599,0.0187,0.014,0.0093
44.76,1.0762,-2.3233,9.5388,0.0083,0.0062,0.0042
44.78,0.9977,-2.4024,9.3111,-0.0065,-0.0048,-0.0032
44.8,0.8226,-2.3428,9.2708,-0.0099,-0.0074,-0.0049
44.82,0.9139,-2.2759,9.3652,0.0027,0.002,0.0014
44.84,0.8976,-2.3683,9.3229,-0.0165,-0.0124,-0.0083
44.86,1.0888,-2.299,9.4838,0.017,0.0128,0.0085
44.88,0.9223,-2.3109,9.2933,-0.0026,-0.0019,-0.0013
44.9,0.9944,-2.2885,9.5172,0.0143,0.0107,0.0072
44.92,0.9012,-2.3452,9.388,-0.003,-0.0022,-0.0015
44.94,0.991,-2.4303,9.4454,0.0096,0.0072,0.0048
44.96,0.8767,-2.3846,9.3154,-0.009,-0.0067,-0.0045
44.98,0.9828,-2.3488,9.3567,-0.013,-0.0097,-0.0065
