time_s,acc_x,acc_y,acc_z,gyro_x,gyro_y,gyro_z
0.0,0.3285,-0.207,9.8079,-0.0,0.0,0.0
0.02,0.3375,-0.2134,9.7123,0.0,-0.0,0.0
0.04,0.3034,-0.1894,9.8469,-0.0,0.0,0.0
0.06,0.3699,-0.3128,9.78,-0.0,0.0,-0.0
0.08,0.3109,-0.2686,9.7652,0.0,-0.0,-0.0
0.1,0.3673,-0.3492,9.86,0.0,0.0,-0.0
0.12,0.3964,-0.3463,9.8038,-0.0,-0.0,0.0
0.14,0.3432,-0.3286,9.7296,0.0,-0.0,-0.0
0.16,0.3689,-0.2886,9.8336,0.0,0.0,-0.0
0.18,0.2624,-0.2879,9.7304,0.0,0.0,0.0
0.2,0.3714,-0.3453,9.8513,-0.0,0.0,-0.0
0.22,0.4272,-0.2219,9.8065,-0.0,-0.0,0.0
0.24,0.2903,-0.3383,9.8197,0.0,-0.0,-0.0
0.26,0.4089,-0.3602,9.7007,0.0,-0.0,0.0
0.28,0.3122,-0.3311,9.8588,-0.0,-0.0,-0.0
0.3,0.3082,-0.3773,9.72,-0.0,-0.0,0.0
0.32,0.3925,-0.2803,9.7678,-0.0,-0.0,-0.0
0.34,0.3165,-0.3163,9.772,0.0,-0.0,0.0
0.36,0.2743,-0.3345,9.7561,-0.0,0.0,0.0
0.38,0.3315,-0.3284,9.8496,0.0,0.0,0.0
0.4,0.3562,-0.3051,9.8,-0.0,0.0,-0.0
0.42,0.3285,-0.3203,9.7949,0.0,-0.0,-0.0
0.44,0.3123,-0.2632,9.7942,0.0,-0.0,0.0
0.46,0.3582,-0.232,9.872,-0.0,0.0,0.0
0.48,0.3226,-0.2492,9.7262,-0.0,0.0,0.0
0.5,0.3311,-0.2616,9.764,-0.0,0.0,0.0
0.52,0.3267,-0.3299,9.8428,0.0,-0.0,-0.0
0.54,0.3416,-0.311,9.8072,-0.0,-0.0,-0.0
0.56,0.3306,-0.3545,9.8062,-0.0,0.0,-0.0
0.58,0.2917,-0.2665,9.7992,-0.0,-0.0,-0.0
0.6,0.3988,-0.2882,9.8473,-0.0,-0.0,0.0
0.62,0.2772,-0.254,9.8753,-0.0,-0.0,0.0
0.64,0.3154,-0.2407,9.8515,0.0,0.0,0.0
0.66,0.3485,-0.2856,9.7311,0.0,0.0,0.0
0.68,0.3986,-0.1566,9.7655,0.0,0.0,-0.0
0.7,0.3493,-0.2661,9.7892,0.0,0.0,0.0
0.72,0.3634,-0.3323,9.7905,0.0,0.0,0.0
0.74,0.3364,-0.3135,9.7728,0.0,-0.0,-0.0
0.76,0.3276,-0.269,9.6902,-0.0,-0.0,-0.0
0.78,0.3354,-0.2608,9.8372,-0.0,-0.0,0.0
0.8,0.3284,-0.311,9.7975,0.0,0.0,-0.0
0.82,0.3803,-0.3486,9.8111,-0.0,0.0,0.0
0.84,0.3704,-0.2329,9.846,-0.0,-0.0,0.0
0.86,0.3453,-0.2805,9.7788,-0.0,0.0,0.0
0.88,0.3703,-0.2871,9.7458,0.0,0.0,-0.0
0.9,0.3723,-0.341,9.7752,-0.0,-0.0,-0.0
0.92,0.3209,-0.2639,9.8382,-0.0,-0.0,0.0
0.94,0.3629,-0.2747,9.7727,0.0,-0.0,-0.0
0.96,0.3095,-0.297,9.7608,-0.0,-0.0,0.0
0.98,0.3146,-0.2625,9.8239,-0.0,-0.0,0.0
1.0,0.3649,-0.2055,9.7988,-0.0,0.0,0.0
1.02,0.2463,-0.2265,9.8193,-0.0,0.0,0.0
1.04,0.3314,-0.2918,9.7683,-0.0,-0.0,-0.0
1.06,0.3216,-0.2361,9.7943,0.0,-0.0,-0.0
1.08,0.3683,-0.2941,9.8132,0.0,0.0,-0.0
1.1,0.334,-0.2872,9.7455,-0.0,0.0,0.0
1.12,0.3237,-0.2488,9.8175,0.0,0.0,-0.0
1.14,0.3108,-0.3137,9.8816,-0.0,0.0,0.0
1.16,0.3082,-0.2618,9.7724,-0.0,-0.0,0.0
1.18,0.4194,-0.2924,9.7876,-0.0,-0.0,0.0
1.2,0.39,-0.2684,9.8028,-0.0,-0.0,0.0
1.22,0.3432,-0.3537,9.7835,0.0,-0.0,-0.0
1.24,0.283,-0.2968,9.8097,0.0,-0.0,0.0
1.26,0.36,-0.4197,9.7991,0.0,-0.0,0.0
1.28,0.3913,-0.2608,9.8549,-0.0,0.0,0.0
1.3,0.2771,-0.3203,9.7695,0.0,0.0,0.0
1.32,0.3523,-0.2668,9.7604,-0.0,-0.0,-0.0
1.34,0.3064,-0.3164,9.776,0.0,0.0,-0.0
1.36,0.3385,-0.2772,9.7811,-0.0,0.0,-0.0
1.38,0.3095,-0.2679,9.8484,0.0,0.0,0.0
1.4,0.371,-0.2232,9.797,-0.0,0.0,-0.0
1.42,0.3118,-0.2788,9.8839,0.0,0.0,-0.0
1.44,0.3902,-0.2388,9.8081,-0.0,-0.0,0.0
1.46,0.3221,-0.2946,9.7569,0.0,0.0,-0.0
1.48,0.3116,-0.3022,9.8113,0.0,0.0,0.0
1.5,0.3652,-0.2799,9.7914,-0.0,0.0,0.0
1.52,0.2865,-0.3126,9.8204,0.0,0.0,0.0
1.54,0.3267,-0.3074,9.8621,0.0,-0.0,-0.0
1.56,0.3215,-0.3466,9.7976,-0.0,-0.0,0.0
1.58,0.3385,-0.3524,9.8056,0.0,-0.0,0.0
1.6,0.2569,-0.2726,9.8085,-0.0,0.0,0.0
1.62,0.3754,-0.3104,9.7948,-0.0,-0.0,-0.0
1.64,0.3231,-0.2618,9.7998,-0.0,0.0,0.0
1.66,0.3806,-0.2532,9.7566,-0.0,0.0,-0.0
1.68,0.3531,-0.2873,9.762,-0.0,-0.0,-0.0
1.7,0.3505,-0.3562,9.8444,-0.0,-0.0,-0.0
1.72,0.3153,-0.3128,9.7964,0.0,-0.0,0.0
1.74,0.2752,-0.3073,9.8213,0.0,0.0,0.0
1.76,0.3721,-0.2038,9.7392,0.0,-0.0,-0.0
1.78,0.3314,-0.2945,9.7229,-0.0,-0.0,-0.0
1.8,0.3217,-0.3013,9.7803,0.0,-0.0,-0.0
1.82,0.3044,-0.3331,9.8524,-0.0,-0.0,0.0
1.84,0.3204,-0.2561,9.7992,-0.0,0.0,0.0
1.86,0.3748,-0.2905,9.8394,-0.0,0.0,0.0
1.88,0.3509,-0.2868,9.798,-0.0,0.0001,0.0
1.9,0.3592,-0.3052,9.7185,0.0006,0.0001,0.0001
1.92,0.3362,-0.2933,9.823,-0.0005,-0.001,-0.0012
1.94,0.2621,-0.3136,9.7919,0.0003,0.0004,-0.0014
1.96,0.3676,-0.2099,9.7933,0.0003,0.0017,-0.0027
1.98,0.3638,-0.2796,9.7864,-0.0036,-0.0022,0.0007
2.0,0.3213,-0.2489,9.821,-0.001,0.0001,-0.0007
2.02,0.2311,-0.3569,9.7474,0.0038,0.0047,0.0011
2.04,0.237,-0.3258,9.7989,0.0024,-0.0053,-0.0051
2.06,0.4018,-0.1423,9.7525,0.0056,-0.004,0.0009
2.08,0.248,-0.2335,9.8678,0.011,0.005,-0.0025
2.1,0.3845,-0.2059,9.7412,0.0019,-0.0002,0.0001
2.12,0.463,-0.2731,9.8169,-0.0079,0.0049,0.0082
2.14,0.3697,-0.2907,9.7401,-0.001,0.0001,0.006
2.16,0.3353,-0.4944,9.8929,-0.0016,0.0026,0.0038
2.18,0.2518,-0.2518,9.7482,0.0082,-0.0001,-0.0044
2.2,0.3755,-0.3802,9.7519,-0.002,0.0143,-0.0103
2.22,0.1818,-0.1434,9.8468,0.0057,0.0061,0.0015
2.24,0.291,-0.3103,9.7388,-0.0066,-0.0086,-0.0058
2.26,0.2397,-0.3686,9.9257,-0.0118,0.0045,0.0
2.28,0.3229,-0.1823,9.7866,0.014,0.0003,0.0096
2.3,0.3643,-0.1952,9.6202,0.0084,0.0033,0.0045
2.32,0.3451,-0.256,9.8328,0.0068,-0.019,0.0017
2.34,0.4108,-0.3543,9.8674,0.0068,-0.0063,0.0118
2.36,0.3412,-0.1194,9.7967,0.0175,0.0143,0.0046
2.38,0.3327,-0.2476,9.7586,0.0315,-0.0094,-0.0059
2.4,0.0989,-0.246,9.6915,0.0095,0.0072,-0.0083
2.42,0.2724,-0.1789,9.595,0.0278,-0.0125,-0.0047
2.44,0.216,-0.2779,9.8322,-0.0122,-0.0056,-0.0031
2.46,0.2469,-0.3143,9.8249,-0.0189,0.0026,0.0028
2.48,0.199,-0.3913,9.8656,0.0234,-0.0189,0.0143
2.5,0.3579,-0.405,9.8211,0.0883,-0.0035,0.0396
2.52,0.5456,-0.3748,9.6645,0.1413,0.0348,0.0361
2.54,0.6366,-0.3918,9.4888,0.1944,0.1296,0.0241
2.56,0.2389,-0.4507,9.0977,0.1372,0.1279,-0.0266
2.58,0.4333,-0.6412,8.8695,-0.0548,-0.0637,-0.1123
2.6,0.1935,-0.444,9.0554,-0.3694,-0.3444,-0.1922
2.62,-0.3539,-0.1488,8.8343,-0.6955,-0.4089,-0.2386
2.64,-0.9305,-0.0548,9.7939,-0.7864,-0.0803,-0.2319
2.66,-0.4308,-0.0921,11.9807,-0.4439,0.4151,-0.1393
2.68,0.3717,0.147,13.1603,0.1124,0.6279,0.0173
2.7,1.2762,-0.1121,11.024,0.5984,0.3195,0.1809
2.72,1.2235,-0.1319,9.5487,0.8539,-0.2337,0.2357
2.74,0.5611,-0.6125,8.8476,0.7073,-0.4305,0.23
2.76,0.2674,-0.6343,8.7826,0.3417,-0.2769,0.1765
2.78,0.2582,-0.6465,9.0702,-0.0179,0.0114,0.095
2.8,0.1397,-0.4418,9.2658,-0.2311,0.1772,0.0183
2.82,-0.013,-0.3731,9.6859,-0.2037,0.1763,-0.0099
2.84,0.0527,-0.2416,9.7782,-0.1249,0.0294,-0.026
2.86,-0.023,-0.2885,9.9251,-0.0407,-0.0324,-0.0139
2.88,0.3703,-0.2614,9.7523,0.0164,-0.0277,-0.0189
2.9,0.2922,-0.1517,9.7499,0.0147,-0.0113,-0.0311
2.92,0.1068,-0.3007,9.7995,-0.001,-0.0176,0.0024
2.94,0.2969,-0.3416,9.7647,0.0026,0.0078,-0.0191
2.96,0.2825,-0.2387,9.7636,0.0291,0.014,0.0078
2.98,0.4113,-0.2491,9.9409,-0.018,-0.0158,-0.0305
3.0,0.1794,-0.1133,9.9994,-0.0051,-0.0374,-0.0244
3.02,0.1575,-0.3458,9.963,0.0294,-0.0078,-0.0232
3.04,0.3697,-0.0115,9.8581,0.1191,0.024,-0.0264
3.06,0.4961,0.0415,9.4499,0.185,0.1266,-0.037
3.08,0.2712,0.0402,9.2106,0.2229,0.1568,0.0057
3.1,0.3417,-0.1123,9.0789,0.0592,0.007,0.0707
3.12,0.2608,-0.0616,8.9063,-0.2288,-0.2548,0.1699
3.14,0.0628,0.0711,8.9355,-0.636,-0.4274,0.2175
3.16,-0.6958,-0.3909,9.3254,-0.7728,-0.2505,0.2314
3.18,-0.7885,-0.371,10.9438,-0.5809,0.2487,0.1797
3.2,0.209,-0.7944,12.7696,-0.1328,0.5621,0.0223
3.22,1.0454,-0.4645,11.8694,0.4305,0.4428,-0.1449
3.24,1.3411,-0.5506,9.9453,0.776,-0.0197,-0.2206
3.26,0.9862,0.0094,9.1728,0.7539,-0.3714,-0.2275
3.28,0.7936,-0.1135,9.0515,0.454,-0.3741,-0.2046
3.3,0.433,-0.0161,9.225,0.0736,-0.0941,-0.1319
3.32,0.5109,0.0342,9.3842,-0.1475,0.1282,-0.0104
3.34,0.2735,-0.1814,9.6338,-0.2263,0.1566,0.0175
3.36,0.3558,0.1309,9.5533,-0.1658,0.062,0.0308
3.38,0.2222,-0.0879,9.7423,-0.0639,-0.0221,0.0541
3.4,0.4024,-0.1104,9.9154,-0.0292,-0.0232,0.0284
3.42,0.5164,-0.2884,9.9619,0.0017,-0.0421,0.0183
3.44,0.3343,-0.3181,9.8472,0.0424,-0.0106,0.0095
3.46,0.3686,-0.028,9.7391,-0.0041,0.0193,-0.0139
3.48,0.6374,-0.1855,9.5814,0.0236,-0.0021,-0.0079
3.5,0.4257,-0.1056,9.8429,0.0016,-0.0182,0.0023
3.52,0.2148,-0.0243,9.9175,0.011,0.0093,-0.0016
3.54,-0.01,-0.3383,9.887,-0.0264,-0.011,-0.0137
3.56,0.654,-0.1734,9.9516,-0.0193,-0.0262,0.0013
3.58,0.2643,-0.4067,10.1928,0.0002,-0.0287,0.0133
3.6,0.3519,-0.1774,10.0919,0.1067,0.0006,0.0245
3.62,0.216,-0.2219,9.5337,0.2049,0.0861,0.0195
3.64,0.4747,-0.6791,9.5234,0.2364,0.1891,0.0205
3.66,0.2602,-0.566,9.2363,0.133,0.1032,-0.0178
3.68,0.4503,-0.5519,9.0186,-0.0521,-0.1095,-0.1163
3.7,0.0774,-0.1525,9.0225,-0.4916,-0.372,-0.1908
3.72,-0.4485,-0.1577,8.7809,-0.7762,-0.4073,-0.2627
3.74,-0.6722,-0.104,10.251,-0.764,-0.0302,-0.2325
3.76,-0.4836,0.0132,12.2665,-0.4109,0.4654,-0.1197
3.78,0.3966,-0.0114,12.5831,0.1497,0.5662,0.0339
3.8,1.2895,-0.0933,11.3181,0.6154,0.2504,0.1584
3.82,1.3304,-0.2489,9.2335,0.8154,-0.2551,0.2463
3.84,0.6239,-0.4568,8.8045,0.5925,-0.43,0.2314
3.86,0.6071,-0.4325,9.1126,0.2855,-0.2554,0.1519
3.88,0.1264,-0.6035,9.0495,-0.0321,0.0448,0.0825
3.9,0.1551,-0.4893,9.2504,-0.2093,0.1491,-0.0047
3.92,0.2981,-0.402,9.6867,-0.176,0.1142,-0.0357
3.94,0.0751,-0.502,9.7617,-0.1177,0.0416,-0.0564
3.96,0.2296,-0.5007,9.9194,-0.049,-0.0529,-0.0078
3.98,0.283,-0.5244,9.7052,-0.0043,-0.0358,-0.0188
4.0,0.3007,-0.2262,10.1527,0.0531,0.0007,-0.0126
4.02,0.3176,-0.6124,9.735,-0.0078,-0.0237,0.0061
4.04,0.0598,-0.1343,9.9445,0.0033,0.0293,0.0148
4.06,-0.0388,-0.436,9.706,0.0032,-0.0159,0.0177
4.08,0.2215,-0.4798,9.9428,-0.0184,0.0149,0.019
4.1,0.0357,-0.4709,9.9201,-0.0141,-0.0164,0.0007
4.12,0.2148,-0.3343,9.8338,-0.0224,-0.0342,-0.0154
4.14,0.2045,-0.4152,10.0632,0.0754,-0.0318,-0.0353
4.16,0.519,-0.318,9.7396,0.1396,0.0218,-0.0174
4.18,0.2724,0.1226,9.6112,0.2048,0.099,-0.0282
4.2,0.4178,-0.1938,9.6449,0.1795,0.1486,0.0049
4.22,0.284,-0.2328,9.2859,-0.0058,0.0073,0.0611
4.24,0.3722,-0.4367,9.0893,-0.3278,-0.261,0.1525
4.26,-0.2027,-0.167,9.1119,-0.629,-0.3924,0.2191
4.28,-0.4601,-0.5126,9.529,-0.7078,-0.1783,0.2362
4.3,-0.6729,-0.7573,11.1806,-0.5053,0.2755,0.1434
4.32,-0.1359,-0.5483,12.2442,-0.0501,0.5618,0.032
4.34,1.1756,-0.6726,11.6243,0.4697,0.3732,-0.1217
4.36,1.3276,-0.4589,9.6923,0.7389,-0.0862,-0.2037
4.38,0.8001,-0.277,9.0913,0.6811,-0.3591,-0.2487
4.4,0.3217,-0.0506,9.1422,0.3816,-0.2962,-0.1816
4.42,0.434,0.2305,9.1766,0.0889,-0.033,-0.1
4.44,0.2409,0.124,9.2827,-0.1498,0.1149,-0.0288
4.46,0.4311,-0.1737,9.4572,-0.2072,0.1304,0.0327
4.48,0.2998,-0.3795,9.6617,-0.1403,0.0576,0.0289
4.5,0.3285,-0.2872,9.8514,-0.0565,0.0046,0.0135
4.52,0.3942,-0.0233,9.8598,0.0154,-0.0125,0.0172
4.54,0.598,-0.1035,9.8927,0.0202,0.0013,0.006
4.56,0.4622,-0.1853,9.6769,0.0435,-0.0183,-0.0016
4.58,0.7326,0.1045,9.6326,0.0041,0.0066,-0.0043
4.6,0.2746,-0.1531,9.8712,-0.0158,-0.0047,0.003
4.62,0.4359,-0.2343,9.8562,-0.0294,0.0079,-0.0081
4.64,0.3567,-0.1099,9.7917,-0.0267,-0.0203,-0.0044
4.66,0.4894,-0.2184,9.8923,0.0442,-0.0479,0.01
4.68,0.4634,-0.1585,9.924,0.0783,-0.0186,0.0049
4.7,0.6912,-0.3127,9.6145,0.1892,0.1156,0.0446
4.72,0.7147,-0.0724,9.3616,0.2267,0.1835,0.0262
4.74,0.3121,-0.513,9.2334,0.0884,0.0757,-0.0608
4.76,0.3321,-0.4085,9.0356,-0.1428,-0.1559,-0.135
4.78,0.3578,-0.4181,8.7044,-0.5405,-0.4149,-0.2071
4.8,-0.3246,0.0634,9.2423,-0.7364,-0.3592,-0.2387
4.82,-0.5292,0.0065,10.6535,-0.6967,0.1037,-0.2064
4.84,-0.0438,0.4395,12.7272,-0.2796,0.4891,-0.094
4.86,0.8159,0.2516,12.2854,0.2619,0.4863,0.0633
4.88,1.3759,0.1276,10.7447,0.6977,0.1108,0.1932
4.9,1.3205,-0.2645,9.1295,0.7985,-0.3229,0.2441
4.92,0.5404,-0.1474,8.7897,0.5752,-0.4529,0.2081
4.94,0.3957,-0.3647,9.2159,0.1959,-0.1676,0.1466
4.96,0.2993,-0.3179,9.3008,-0.0858,0.0901,0.0459
4.98,0.1671,-0.6853,9.5776,-0.2206,0.1594,-0.0011
5.0,0.2293,-0.2889,9.5095,-0.1741,0.0786,-0.0287
5.02,0.2533,-0.4614,9.6478,-0.0943,-0.0049,-0.0358
5.04,0.1442,-0.4357,9.8424,-0.0192,-0.0119,-0.0159
5.06,0.2133,-0.2924,10.0576,0.017,-0.0456,-0.0174
5.08,0.343,-0.4461,9.6481,0.0291,-0.0093,0.0075
5.1,0.1449,-0.515,9.7016,0.0237,0.0073,-0.0036
5.12,0.3213,-0.4845,9.7332,0.0124,-0.0233,0.0086
5.14,-0.153,-0.655,9.2633,0.0062,-0.0032,0.0003
5.16,-0.2252,-0.9409,9.0827,-0.0017,0.0002,-0.0187
5.18,-0.0743,-0.5835,9.3519,0.0174,0.0145,-0.0041
5.2,-0.2942,-0.7833,9.2584,-0.0005,-0.0201,-0.013
5.22,0.4038,-0.3459,9.8585,0.003,-0.0527,-0.0376
5.24,0.3499,-0.5217,10.0828,0.0996,-0.0329,-0.0379
5.26,0.8391,-0.2843,10.3114,0.1505,0.0541,-0.0233
5.28,-0.3523,-0.8541,8.5171,0.1925,0.1375,-0.0013
5.3,-0.345,-0.7646,8.4871,0.1392,0.1038,0.045
5.32,0.2599,-0.3133,9.1331,-0.1008,-0.106,0.1155
5.34,-0.2481,-0.5039,8.6206,-0.4549,-0.359,0.2104
5.36,0.1077,-0.4304,9.5558,-0.7394,-0.3706,0.232
5.38,-1.0433,-1.0881,9.7788,-0.7092,-0.0042,0.2116
5.4,-0.4403,-0.9591,11.8083,-0.3592,0.4401,0.1017
5.42,0.2727,-0.8809,12.354,0.188,0.5512,-0.0476
5.44,1.2087,-0.8302,11.1864,0.6673,0.1972,-0.1826
5.46,0.761,-0.8823,8.9779,0.7671,-0.2706,-0.2232
5.48,0.6671,-0.3641,9.0175,0.6343,-0.3969,-0.2187
5.5,0.2136,-0.2848,9.1979,0.2494,-0.2384,-0.1479
5.52,0.2799,-0.3339,9.1933,-0.0155,0.0513,-0.061
5.54,0.2438,-0.3581,9.3905,-0.1891,0.1797,0.012
5.56,0.0872,-0.1584,9.6284,-0.1523,0.1258,0.0218
5.58,-0.0942,-0.312,9.855,-0.0952,-0.0137,0.0203
5.6,0.3635,-0.3187,9.8529,-0.0035,-0.0403,0.015
5.62,0.2639,-0.4736,9.8879,0.0057,-0.0175,0.0196
5.64,0.1706,-0.5374,9.6881,0.0056,0.0201,-0.0
5.66,0.0958,-0.4447,9.7696,0.0241,-0.0068,0.0251
5.68,-0.0158,-0.3706,9.7716,-0.02,0.0042,-0.0029
5.7,0.2152,-0.3379,10.1927,0.0175,-0.0423,0.0141
5.72,0.4595,-0.184,9.8148,0.0139,-0.0457,0.0034
5.74,0.4468,-0.3426,9.8158,0.066,-0.0075,0.0284
5.76,0.4098,-0.4779,9.6678,0.1227,0.0346,0.0343
5.78,0.4208,-0.4336,9.3459,0.1578,0.1347,-0.0039
5.8,0.4769,-0.6561,9.3769,0.153,0.1131,-0.0244
5.82,0.0972,-0.2841,9.1067,-0.032,-0.0464,-0.0923
5.84,0.5792,-0.2668,9.1847,-0.3662,-0.2981,-0.1654
5.86,0.0746,-0.1718,9.1359,-0.5777,-0.3192,-0.2083
5.88,-0.4484,-0.0281,9.8537,-0.6837,-0.0986,-0.1886
5.9,-0.0779,0.2754,11.6254,-0.4219,0.349,-0.1106
5.92,0.7193,0.3788,12.808,0.0868,0.4868,0.0233
5.94,0.9918,0.1287,10.9731,0.5233,0.2122,0.1353
5.96,1.135,0.0668,9.5331,0.6794,-0.1911,0.203
5.98,0.9846,0.0784,9.0193,0.5484,-0.3883,0.1892
6.0,0.7245,-0.2097,8.9832,0.2574,-0.2395,0.1317
6.02,0.5494,-0.2998,9.2489,0.0133,0.033,0.0871
6.04,0.2371,-0.1836,9.2941,-0.1597,0.1324,0.0032
6.06,0.4736,-0.0059,9.9728,-0.1579,0.0916,-0.0307
6.08,0.387,0.164,9.7835,-0.0821,0.0286,-0.0273
6.1,0.2654,0.024,9.8993,-0.0757,-0.0141,-0.0102
6.12,0.2995,-0.2002,9.7972,-0.0087,-0.0464,-0.0123
6.14,0.1658,-0.0207,9.7097,-0.0079,-0.0118,-0.0268
6.16,0.3891,-0.1631,9.7755,0.0128,-0.0187,-0.0218
6.18,0.3034,-0.0848,9.8337,0.0585,-0.0428,-0.0282
6.2,0.6623,-0.1796,9.7685,0.1115,0.0047,-0.04
6.22,0.7776,0.0102,9.6383,0.1469,0.0877,-0.0325
6.24,0.6587,-0.1579,9.5324,0.2037,0.1834,-0.002
6.26,0.3598,0.0274,9.2673,0.0787,0.0767,0.0598
6.28,0.0926,-0.2237,9.1022,-0.184,-0.1543,0.1369
6.3,0.3215,-0.1378,9.0695,-0.5326,-0.4,0.2258
6.32,-0.3635,-0.481,9.1302,-0.7377,-0.3158,0.2166
6.34,-0.5249,-0.3794,10.4987,-0.6453,0.0915,0.1855
6.36,-0.064,-0.9995,12.1422,-0.2861,0.4963,0.0712
6.38,0.8703,-0.5574,12.5854,0.2717,0.4933,-0.0765
6.4,1.4293,-0.7153,10.473,0.6912,0.0831,-0.1904
6.42,0.9821,-0.2993,9.124,0.7471,-0.3213,-0.2464
6.44,0.3007,-0.5122,9.2539,0.5491,-0.4154,-0.213
6.46,0.2348,-0.2696,9.0064,0.1761,-0.1848,-0.1239
6.48,-0.0444,-0.098,9.2944,-0.0844,0.0911,-0.0572
6.5,0.5136,-0.1361,9.6396,-0.2094,0.1531,0.0068
6.52,0.0447,-0.3792,9.6135,-0.189,0.0846,0.0164
6.54,0.0711,-0.2917,9.6735,-0.0746,-0.0032,0.0415
6.56,0.3641,-0.4505,9.8821,-0.0228,-0.024,0.0208
6.58,0.5433,-0.3452,10.0384,0.0122,-0.0255,0.028
6.6,0.3361,-0.4544,9.8638,0.013,-0.005,-0.0091
6.62,0.4163,-0.1719,9.6206,0.0007,0.0244,-0.0132
6.64,0.1782,-0.3762,9.723,0.0216,0.0113,0.0012
6.66,0.2986,-0.4504,9.9566,0.0314,0.0132,-0.0019
6.68,0.1332,-0.6706,9.9181,-0.0186,-0.0113,0.0008
6.7,0.1334,-0.4766,9.8465,0.0184,-0.0297,0.0306
6.72,0.2856,-0.4171,9.9339,0.0439,-0.0144,0.0406
6.74,0.4171,-0.5287,9.8127,0.1509,0.0285,0.0421
6.76,0.2957,-0.5908,9.4377,0.2371,0.1367,-0.0016
6.78,0.5618,-1.1091,9.3509,0.206,0.1943,-0.0083
6.8,0.8537,-0.9727,9.128,0.0367,-0.0071,-0.0882
6.82,0.4224,-0.6178,9.0606,-0.3244,-0.2775,-0.1796
6.84,-0.1479,-0.6032,8.8886,-0.7071,-0.4307,-0.2556
6.86,-0.5054,-0.2968,9.3712,-0.8449,-0.2283,-0.2367
6.88,-0.984,-0.3199,11.3018,-0.6071,0.3027,-0.1749
6.9,-0.0412,-0.0116,13.0606,-0.0985,0.6194,-0.0073
6.92,1.0312,0.0416,12.2826,0.511,0.4174,0.1341
6.94,1.601,-0.1729,10.2013,0.8168,-0.0961,0.2288
6.96,0.9207,-0.3758,8.6973,0.7994,-0.4291,0.2637
6.98,0.53,-0.6513,8.749,0.4524,-0.3754,0.2181
7.0,0.5442,-0.4867,8.8853,0.0924,-0.0808,0.1205
7.02,0.437,-0.5689,9.1701,-0.1871,0.122,0.0247
7.04,0.0403,-0.4935,9.3402,-0.2482,0.135,-0.0045
7.06,0.1481,-0.4946,9.4836,-0.1467,0.082,-0.0416
7.08,0.2675,-0.4421,9.9325,-0.0745,-0.0241,-0.002
7.1,0.2731,-0.5019,9.9281,-0.008,-0.0303,-0.0111
7.12,0.658,-0.229,9.9132,0.0512,-0.0097,-0.0135
7.14,0.1134,-0.222,9.6615,0.0483,0.0135,-0.0004
7.16,0.4973,-0.291,9.864,0.0261,0.0362,0.0085
7.18,0.4986,-0.3996,9.7694,0.0112,0.028,0.0005
7.2,0.4156,-0.4517,9.9554,0.0062,-0.0303,-0.0205
7.22,0.4714,-0.2603,9.7823,0.0633,-0.0229,-0.0287
7.24,0.3015,0.1,9.7084,0.1273,-0.0078,-0.0549
7.26,0.525,-0.1307,9.5707,0.1993,0.1053,-0.0109
7.28,0.4105,-0.2458,9.5024,0.2015,0.1711,-0.0207
7.3,0.2162,-0.1334,9.2893,0.1092,0.0871,0.0599
7.32,0.4604,-0.0008,9.0397,-0.1974,-0.1618,0.1326
7.34,0.1934,-0.1431,9.1877,-0.5306,-0.3919,0.1949
7.36,-0.8525,-0.0181,9.3609,-0.7336,-0.2884,0.2373
7.38,-0.5767,-0.4,10.3047,-0.6218,0.1248,0.1723
7.4,0.0647,-0.5201,12.6042,-0.1854,0.5002,0.062
7.42,0.7922,-0.6379,12.2287,0.3138,0.4696,-0.0743
7.44,1.3582,-0.2949,10.0688,0.6788,0.0799,-0.1995
7.46,1.1529,-0.3703,9.212,0.7282,-0.3538,-0.2566
7.48,0.5269,-0.13,8.9553,0.4803,-0.3656,-0.18
7.5,0.4178,0.2757,9.211,0.1257,-0.1352,-0.1197
7.52,0.5103,0.4242,9.3554,-0.0854,0.1055,-0.0429
7.54,0.1814,-0.1087,9.4294,-0.2033,0.1623,0.0068
7.56,0.6527,-0.0846,9.5367,-0.1617,0.0934,0.0437
7.58,0.3195,-0.2219,9.8927,-0.0862,0.0151,0.0327
7.6,0.5539,-0.1966,10.19,-0.017,-0.0328,0.0358
7.62,0.2249,-0.1305,9.9086,0.0061,0.0047,0.0111
7.64,0.4037,-0.2465,9.8706,0.032,-0.0114,-0.0015
7.66,0.4566,-0.2279,9.6837,0.0279,0.0175,0.0227
7.68,0.2428,0.0872,9.8786,0.028,0.0123,-0.0034
7.7,0.2435,-0.0657,9.5274,0.0147,0.0232,-0.0108
7.72,0.3523,-0.3194,10.0225,0.003,0.0124,-0.0053
7.74,0.271,-0.4758,10.0253,0.0064,-0.0379,-0.0044
7.76,0.2412,-0.2149,9.9025,0.0505,-0.0402,0.0124
7.78,0.3265,-0.2495,9.7237,0.1034,0.0074,0.0464
7.8,0.4775,-0.3801,9.5876,0.1816,0.0817,0.0258
7.82,0.3302,-0.3674,9.3706,0.2141,0.1497,0.0085
7.84,0.3098,-0.2315,9.158,0.122,0.1159,-0.0362
7.86,0.3467,-0.6201,9.2418,-0.1345,-0.148,-0.1321
7.88,0.1812,-0.4502,8.8716,-0.5077,-0.3793,-0.2023
7.9,-0.4218,-0.1392,9.3506,-0.7439,-0.3061,-0.2296
7.92,-0.4222,0.1487,10.5856,-0.7107,0.1124,-0.2049
7.94,0.6124,0.6693,13.8543,-0.2839,0.5173,-0.0856
7.96,0.88,0.0655,13.0251,0.2471,0.523,0.0682
7.98,0.738,-0.4235,9.548,0.6926,0.117,0.2085
8.0,0.7736,-0.4574,8.798,0.7516,-0.305,0.2226
8.02,0.8058,-0.1914,9.1929,0.5408,-0.4066,0.2113
8.04,0.3724,-0.969,9.0118,0.2228,-0.1734,0.1461
8.06,0.4102,-0.4839,9.4053,-0.0792,0.0691,0.049
8.08,-0.1324,-0.5771,9.2799,-0.2054,0.1265,-0.0033
8.1,0.6814,-0.4173,10.1354,-0.1779,0.062,-0.0347
8.12,-0.562,-1.2861,8.889,-0.0727,0.0104,-0.0073
8.14,1.1557,-0.0664,10.89,0.0112,-0.0271,-0.0352
8.16,0.4053,-0.4631,10.0632,0.0054,-0.0066,-0.0146
8.18,0.2701,-0.5463,10.2038,0.0148,0.0063,-0.0
8.2,0.3947,-0.1771,9.979,-0.0046,-0.0324,-0.0052
8.22,0.4525,-0.4869,10.1501,-0.0047,0.004,0.0009
8.24,0.2878,-0.4985,10.0108,0.0092,-0.0069,-0.026
8.26,0.3485,-0.6833,9.7697,0.0744,0.0101,-0.0291
8.28,0.6291,-0.0116,9.9856,0.1463,0.0803,-0.0373
8.3,-0.2104,-1.2369,8.4426,0.1821,0.152,-0.028
8.32,0.0966,-0.308,9.439,0.1206,0.1202,0.0128
8.34,0.3315,-0.3028,9.2168,-0.0885,-0.1041,0.1244
8.36,0.1222,-0.2452,9.103,-0.4105,-0.3523,0.195
8.38,-0.4294,-0.6436,9.1628,-0.6412,-0.3209,0.2007
8.4,-0.518,-0.7055,10.1853,-0.6622,-0.0432,0.1915
8.42,-0.2047,-0.8361,12.0907,-0.3293,0.3944,0.0968
8.44,0.4237,-0.7127,12.0124,0.1745,0.5074,-0.041
8.46,1.2878,-0.723,10.5292,0.5457,0.1882,-0.1521
8.48,1.0739,-0.7556,9.3382,0.7357,-0.2339,-0.2241
8.5,0.6935,-0.3386,9.007,0.5635,-0.377,-0.1815
8.52,0.4354,-0.1501,9.165,0.2395,-0.2168,-0.1243
8.54,0.4072,-0.221,9.143,-0.0332,0.0636,-0.0711
8.56,0.3056,-0.3711,9.3621,-0.1703,0.1471,0.0011
8.58,0.2592,-0.1302,9.6652,-0.1712,0.1094,0.0172
8.6,0.5138,0.0609,9.8417,-0.0646,0.0227,0.023
8.62,0.3672,-0.1755,9.9323,-0.0101,-0.0114,0.0145
8.64,0.4226,-0.2754,10.0774,-0.0241,-0.0256,0.0124
8.66,0.3343,-0.1182,9.7115,0.0139,0.0023,0.0243
8.68,0.6299,-0.1529,9.6618,0.0165,-0.0029,-0.0062
8.7,0.5903,0.039,9.8404,0.0254,-0.0093,-0.0033
8.72,0.5098,-0.3199,9.693,0.042,0.0295,0.0087
8.74,0.3617,-0.009,9.8271,0.0234,-0.0292,0.0036
8.76,0.4099,0.0571,10.0931,0.001,-0.0189,0.0118
8.78,0.2836,-0.3284,9.9557,0.0604,-0.0222,0.0275
8.8,0.7014,-0.0712,9.5498,0.1255,0.0063,0.0366
8.82,0.624,0.0747,9.3994,0.219,0.1372,0.0424
8.84,0.3936,-0.3286,9.2138,0.2411,0.1742,-0.0129
8.86,0.6433,-0.318,9.2195,0.015,0.0594,-0.0754
8.88,0.6319,-0.3415,8.8343,-0.2828,-0.2621,-0.1684
8.9,0.2426,-0.0783,8.7069,-0.6274,-0.4235,-0.2298
8.92,-0.5126,-0.0332,9.504,-0.7916,-0.2468,-0.2298
8.94,-0.6465,0.4244,11.1493,-0.6187,0.2535,-0.1841
8.96,0.4764,0.5192,13.1802,-0.1244,0.577,-0.0523
8.98,1.0676,0.4124,12.0599,0.4344,0.4576,0.1063
9.0,1.2829,0.0907,9.8489,0.7765,-0.0568,0.2183
9.02,1.1178,0.0867,9.0163,0.7595,-0.4083,0.2479
9.04,0.4745,-0.2255,8.7734,0.4589,-0.3874,0.207
9.06,0.329,-0.5448,8.9435,0.0916,-0.088,0.1184
9.08,0.5819,-0.4284,9.3504,-0.1276,0.1452,0.0231
9.1,0.2285,-0.3952,9.3903,-0.1796,0.1416,-0.0441
9.12,0.144,-0.2907,9.7921,-0.1463,0.0823,-0.0336
9.14,0.3635,-0.0997,9.7783,-0.0808,-0.0181,-0.0309
9.16,0.5493,-0.2585,9.8506,0.0327,-0.0185,-0.0341
9.18,0.2822,-0.1659,9.7238,0.0128,-0.0125,-0.0184
9.2,0.37,-0.086,9.8873,0.0239,0.0055,0.0056
9.22,0.3717,-0.3204,9.8242,0.015,0.0112,-0.0165
9.24,0.3747,-0.32,9.9436,-0.0079,-0.0054,-0.0112
9.26,0.3001,-0.4209,9.8817,0.0026,-0.0221,0.0042
9.28,0.5952,-0.3261,9.9514,0.0088,0.0017,-0.0116
9.3,0.4231,-0.1568,10.0922,0.0395,0.0052,-0.0218
9.32,0.5236,-0.3522,9.6008,0.1606,0.0149,-0.0426
9.34,0.6348,-0.3281,9.5294,0.1434,0.1373,-0.0144
9.36,0.5947,-0.0297,9.4672,0.1371,0.1342,0.0271
9.38,0.4753,-0.4814,9.1663,-0.0544,-0.0608,0.0952
9.4,0.28,-0.5139,9.1326,-0.3687,-0.3143,0.1529
9.42,0.0015,-0.734,8.9783,-0.5867,-0.3354,0.206
9.44,-0.3852,-0.9668,10.1155,-0.6179,-0.075,0.1905
9.46,-0.324,-0.8286,11.6445,-0.3492,0.3788,0.0957
9.48,0.4457,-0.8127,12.3255,0.1181,0.5023,-0.0269
9.5,1.2431,-0.6959,11.3162,0.5235,0.2093,-0.1548
9.52,0.92,-0.5986,9.206,0.6704,-0.1921,-0.2065
9.54,0.6445,-0.5857,8.9199,0.5194,-0.3597,-0.1977
9.56,0.5593,-0.2887,9.0721,0.2409,-0.2382,-0.1437
9.58,0.0154,-0.4616,9.421,-0.0287,0.0096,-0.0627
9.6,0.4683,-0.531,9.554,-0.1517,0.1163,-0.013
9.62,0.1427,-0.5004,9.4362,-0.1399,0.1341,0.0382
9.64,0.3515,-0.3082,10.0495,-0.0835,0.0109,0.0204
9.66,0.1816,-0.5214,10.0666,-0.0418,-0.003,0.0195
9.68,0.1927,-0.4156,9.84,0.0028,-0.0133,0.0031
9.7,0.476,-0.523,9.7252,0.0242,0.021,-0.0113
9.72,0.363,-0.4541,9.8787,0.0482,-0.0072,-0.0156
9.74,0.4301,-0.7191,9.7657,0.0133,0.0049,0.0008
9.76,0.275,-0.5139,9.932,0.0097,0.0168,0.0031
9.78,0.2001,-0.3457,9.772,-0.0034,0.0073,-0.0032
9.8,0.5031,-0.4467,9.7439,-0.0286,0.0084,0.0039
9.82,0.1209,-0.2952,9.9554,-0.014,-0.0028,0.0162
9.84,0.2846,-0.2312,9.92,0.0187,-0.0461,0.025
9.86,0.4244,-0.2949,9.8237,0.0725,-0.0143,0.0349
9.88,0.5913,-0.5573,9.5514,0.1504,0.0315,0.0417
9.9,0.3002,-0.5025,9.3521,0.2586,0.1428,0.0383
9.92,0.3441,-0.473,9.4303,0.1864,0.1886,-0.0027
9.94,0.5447,-0.4816,9.0376,0.003,0.0206,-0.1079
9.96,0.1963,-0.1827,8.7859,-0.3248,-0.3063,-0.1885
9.98,0.0939,-0.3784,8.9767,-0.7027,-0.4356,-0.2409
10.0,-0.6269,-0.0762,9.2652,-0.8687,-0.1813,-0.2516
10.02,-0.636,0.2054,11.5498,-0.6128,0.317,-0.1692
10.04,0.333,0.3115,13.3666,-0.0429,0.6453,-0.0098
10.06,1.1792,0.0079,12.2418,0.5428,0.4171,0.1508
10.08,1.4084,-0.1829,9.7367,0.8307,-0.1257,0.2702
10.1,0.8845,-0.4901,9.077,0.7812,-0.4094,0.2611
10.12,0.2119,-0.2803,8.9447,0.4272,-0.3827,0.1807
10.14,0.6207,-0.4556,8.9665,0.0526,-0.0399,0.1121
10.16,0.5051,-0.1519,9.0334,-0.1721,0.1575,0.0517
10.18,0.3112,-0.2177,9.5738,-0.2094,0.1674,-0.0246
10.2,0.2845,-0.3493,9.6875,-0.1352,0.07,-0.0402
10.22,0.0505,-0.3573,10.0248,-0.0812,-0.0285,-0.0279
10.24,0.4386,-0.1858,9.9641,-0.0135,-0.0488,-0.0273
10.26,0.6448,0.1258,9.7837,0.029,-0.0049,-0.0109
10.28,0.2698,-0.198,9.6722,0.019,-0.0116,-0.0064
10.3,0.2363,0.0339,9.5824,0.0106,0.0332,0.0022
10.32,0.2447,-0.3351,9.7681,-0.0251,-0.0141,-0.0042
10.34,0.4417,-0.1665,9.77,-0.0029,-0.0227,-0.0076
10.36,0.4754,-0.1881,10.0249,0.0412,-0.0255,-0.0116
10.38,0.7267,-0.0541,9.6272,0.1088,0.0148,-0.0226
10.4,0.5903,-0.1991,9.6062,0.2015,0.0926,-0.0322
10.42,0.4141,0.0199,9.4519,0.2382,0.1786,0.0085
10.44,0.6073,0.0222,9.016,0.0921,0.0882,0.0439
10.46,0.1972,-0.3062,8.9936,-0.1952,-0.1843,0.1204
10.48,0.0667,-0.4978,9.1362,-0.5592,-0.4448,0.2244
10.5,-0.397,-0.2193,9.1955,-0.8361,-0.3653,0.2838
10.52,-0.6875,-0.6142,10.7555,-0.7361,0.071,0.2072
10.54,-0.0342,-0.7599,12.4679,-0.3108,0.5813,0.1032
10.56,0.8624,-0.5774,12.4538,0.2601,0.5719,-0.075
10.58,1.6903,-0.6932,10.9592,0.7311,0.1287,-0.217
10.6,1.2963,-0.118,9.1565,0.8337,-0.3528,-0.2546
10.62,0.6088,-0.4245,8.7664,0.6024,-0.4619,-0.2433
10.64,0.452,-0.0602,8.8992,0.1973,-0.1561,-0.1266
10.66,0.3818,-0.0394,9.1914,-0.0862,0.0671,-0.0539
10.68,0.3269,0.0015,9.1526,-0.2273,0.1684,-0.0089
10.7,0.3909,-0.1787,9.6366,-0.1728,0.1178,0.0028
10.72,0.3995,-0.3917,9.7717,-0.076,0.0157,0.0205
10.74,0.1961,-0.4339,9.9527,0.0003,-0.0335,0.0279
10.76,0.275,-0.4388,9.8778,0.0391,-0.0392,0.0016
10.78,0.2748,-0.5499,10.0179,0.0087,-0.0162,-0.015
10.8,0.5569,-0.5756,9.9008,-0.0118,0.016,0.0111
10.82,0.4632,-0.244,9.8394,0.0081,0.0071,-0.0121
10.84,0.2712,-0.4284,9.9396,-0.009,0.0418,-0.0146
10.86,0.143,-0.193,9.992,0.0118,-0.0167,0.0142
10.88,0.1756,-0.1658,10.0523,0.0115,-0.026,0.0154
10.9,0.5428,-0.5985,9.8907,0.045,-0.03,0.0202
10.92,0.6704,-0.4925,9.7629,0.1657,0.0127,0.0351
10.94,0.505,-0.5778,9.4449,0.2342,0.1516,0.0538
10.96,0.3655,-0.475,9.2105,0.2391,0.2037,0.0022
10.98,0.2874,-0.7879,9.1637,0.0577,0.0564,-0.0908
11.0,0.0771,-0.5905,8.9277,-0.2577,-0.2613,-0.1869
11.02,-0.1866,-0.4238,8.7507,-0.7028,-0.5128,-0.2789
11.04,-0.7153,-0.1492,9.0565,-0.9013,-0.3222,-0.2873
11.06,-0.8983,-0.1499,11.5624,-0.7274,0.2366,-0.2267
11.08,-0.1289,0.1551,13.3586,-0.1972,0.6914,-0.0607
11.1,1.1615,-0.0857,12.3754,0.5009,0.5446,0.1327
11.12,1.4584,0.1388,10.0583,0.8878,-0.0049,0.2594
11.14,1.2231,-0.3149,8.7663,0.8949,-0.459,0.2862
11.16,0.4156,-0.7348,8.6262,0.5674,-0.4499,0.2556
11.18,0.4184,-0.579,8.7662,0.1119,-0.1539,0.1298
11.2,0.4722,-0.7411,9.2792,-0.138,0.1296,0.0361
11.22,0.1503,-0.6622,9.093,-0.2276,0.154,-0.03
11.24,0.0446,-0.3432,9.6683,-0.1849,0.0724,-0.0431
11.26,0.3113,-0.5084,9.8473,-0.0617,-0.0287,-0.0275
11.28,0.3731,-0.3581,9.9287,-0.0012,-0.0419,-0.0184
11.3,0.3823,-0.3443,9.8408,0.0252,-0.0187,-0.0263
11.32,0.2041,-0.3749,9.8477,0.0435,-0.0036,-0.0091
11.34,0.4031,-0.2783,9.7319,0.0312,0.0102,0.0012
11.36,0.0897,-0.1524,9.7797,0.0071,-0.012,0.0246
11.38,0.5764,-0.2427,9.8882,0.0137,-0.0187,-0.0146
11.4,0.4383,-0.4364,9.9067,0.0266,0.0278,-0.0183
11.42,0.5507,-0.3969,9.8557,-0.0211,-0.0251,-0.0152
11.44,0.278,-0.4579,9.8792,-0.0113,-0.017,-0.004
11.46,0.3109,-0.1581,10.1769,0.0112,-0.0546,-0.0237
11.48,0.4984,-0.0335,9.8151,0.1349,-0.0392,-0.0319
11.5,0.9753,-0.3106,9.6214,0.2,0.0785,-0.0455
11.52,0.477,0.0641,9.2211,0.2437,0.1911,-0.0327
11.54,0.2479,-0.0476,9.1561,0.1792,0.1474,0.0416
11.56,0.5069,0.2008,8.935,-0.0975,-0.1113,0.1164
11.58,0.2043,0.0619,8.8811,-0.5222,-0.4316,0.247
11.6,-0.1507,-0.2023,8.8843,-0.8742,-0.4458,0.2717
11.62,-0.7413,-0.5333,10.1049,-0.9014,-0.0335,0.2432
11.64,-0.6944,-0.6061,11.8668,-0.4989,0.5181,0.1366
11.66,1.015,-0.6551,13.2558,0.1553,0.6806,-0.0165
11.68,1.5536,-0.3173,11.3698,0.7414,0.2823,-0.2036
11.7,1.605,-0.1695,9.4492,0.9237,-0.2778,-0.2698
11.72,1.1632,-0.2512,8.7571,0.7249,-0.4779,-0.2936
11.74,0.6622,0.0553,8.8827,0.3559,-0.276,-0.1842
11.76,0.709,0.1166,9.3056,-0.0515,0.0309,-0.0955
11.78,0.1666,-0.1739,9.2527,-0.2411,0.1948,-0.0024
11.8,0.0666,-0.0295,9.7205,-0.2502,0.1455,0.0339
11.82,0.2285,-0.1828,9.8398,-0.1179,0.01,0.0628
11.84,0.3053,-0.2567,9.9174,-0.0563,-0.0426,0.0312
11.86,0.5507,-0.1087,9.8842,0.0077,-0.0342,0.0149
11.88,0.5803,-0.066,9.8227,0.036,-0.0139,0.0121
11.9,0.4213,-0.1189,9.7073,0.0289,0.0095,-0.0269
11.92,0.6354,-0.0724,9.7193,0.0158,-0.0037,-0.0095
11.94,0.3803,-0.1583,9.7741,-0.0054,0.021,0.0097
11.96,0.2808,-0.3735,9.7245,-0.0127,0.0181,-0.0046
11.98,0.4821,-0.3473,9.675,-0.0183,0.0105,0.009
12.0,0.2331,-0.0876,10.023,-0.0112,-0.0192,0.0174
12.02,0.3526,-0.3619,10.2278,0.0035,-0.0265,0.0245
12.04,0.8243,-0.069,9.8028,0.0751,-0.0057,0.0212
12.06,0.6464,-0.511,9.5094,0.2005,0.0933,0.0402
12.08,0.4398,-0.742,9.3704,0.2264,0.1521,0.0123
12.1,0.5467,-0.5618,9.2842,0.1374,0.0922,-0.0535
12.12,0.2894,-0.5339,9.1216,-0.1571,-0.1645,-0.1107
12.14,0.2634,-0.0821,8.9791,-0.5249,-0.408,-0.2139
12.16,-0.5689,-0.3763,9.0283,-0.7852,-0.3372,-0.2584
12.18,-0.9113,0.0682,10.1068,-0.7745,0.0503,-0.2089
12.2,-0.3002,0.1911,12.6515,-0.3171,0.5069,-0.0861
12.22,0.919,0.1515,12.9173,0.2445,0.5736,0.0657
12.24,1.26,-0.2288,10.5033,0.7043,0.1516,0.1915
12.26,1.2381,-0.3149,9.1362,0.7907,-0.3078,0.2494
12.28,0.4108,-0.5849,8.6225,0.5834,-0.4202,0.2287
12.3,0.3621,-0.5349,9.0253,0.2004,-0.1909,0.1536
12.32,0.227,-0.4468,8.9086,-0.0606,0.0588,0.0533
12.34,-0.008,-0.3223,9.5819,-0.2178,0.156,-0.0137
12.36,0.1371,-0.6361,9.4784,-0.1766,0.1159,-0.0186
12.38,-0.0109,-0.4979,9.8448,-0.0822,0.0079,-0.0207
12.4,0.2265,-0.5056,9.9763,-0.0004,-0.0406,-0.0294
12.42,0.1229,-0.3116,9.6735,0.0197,-0.0204,-0.0217
12.44,0.3171,-0.2661,9.8559,0.0144,-0.0035,-0.0096
12.46,0.3526,-0.5194,9.7192,-0.0214,-0.0119,-0.0074
12.48,0.1689,-0.5677,9.7426,-0.0075,-0.0072,0.0046
12.5,0.4156,-0.4951,9.8619,0.0117,-0.0013,0.007
12.52,0.1922,-0.3523,9.8268,-0.0374,-0.0218,-0.0266
12.54,0.5084,-0.5676,9.8548,-0.0273,-0.036,-0.0037
12.56,0.5976,-0.3063,9.9343,0.067,-0.0597,-0.0283
12.58,0.5201,-0.4786,9.798,0.1603,0.0277,-0.025
12.6,0.7242,-0.7067,9.4609,0.201,0.1366,-0.0344
12.62,0.4614,-0.2295,9.1983,0.2337,0.1921,-0.0076
12.64,0.5502,-0.1266,9.1745,0.0245,0.0214,0.09
12.66,0.1138,-0.3322,8.955,-0.3496,-0.298,0.1897
12.68,-0.207,-0.1214,8.857,-0.687,-0.4704,0.2801
12.7,-0.4743,-0.7297,9.5381,-0.8483,-0.2564,0.2628
12.72,-0.9702,-1.0096,10.9707,-0.6479,0.2852,0.1803
12.74,0.2526,-0.7187,12.9552,-0.0999,0.6355,0.0308
12.76,1.3304,-1.0868,12.3708,0.4954,0.4828,-0.1199
12.78,1.3056,-0.461,9.7603,0.8852,-0.0919,-0.2486
12.8,1.2164,-0.3469,8.9165,0.8215,-0.4383,-0.2671
12.82,0.4394,-0.158,8.7138,0.4566,-0.4077,-0.2215
12.84,0.262,-0.0435,9.017,0.0892,-0.0915,-0.0974
12.86,0.3143,-0.0684,9.296,-0.1694,0.1625,-0.0329
12.88,0.2196,-0.0372,9.743,-0.2382,0.1752,0.0073
12.9,0.2737,0.0547,9.7719,-0.1932,0.072,0.0343
12.92,0.0991,-0.1671,9.9349,-0.0607,-0.0246,0.0286
12.94,0.281,-0.2867,10.2085,0.0137,-0.0334,0.0227
12.96,0.4259,-0.1339,10.4614,0.0398,-0.0073,0.0118
12.98,0.6513,-0.1087,9.773,0.0271,-0.0085,-0.0177
13.0,0.2285,-0.3281,9.4024,0.0258,0.0088,-0.0212
13.02,0.251,-0.2787,9.5091,-0.0106,-0.002,-0.0291
13.04,0.2342,-0.2511,10.0156,-0.0247,0.0042,0.0208
13.06,-0.0045,-0.8019,9.3996,0.0123,-0.0307,0.0237
13.08,0.4011,-0.3646,9.6372,0.0461,-0.0399,0.0272
13.1,0.3814,-0.5291,9.2194,0.1164,0.0092,0.0166
13.12,0.1537,-0.6001,9.0524,0.1894,0.105,0.0107
13.14,0.4019,-0.165,9.405,0.1945,0.1513,0.0063
13.16,0.5408,-0.3782,9.3565,0.0829,0.0361,-0.0705
13.18,0.0511,-0.5798,8.8773,-0.2192,-0.2356,-0.1369
13.2,0.0093,-0.502,8.4836,-0.5913,-0.4139,-0.2126
13.22,-1.2327,-0.4347,8.3551,-0.7251,-0.2211,-0.2338
13.24,-0.4658,0.1229,11.3345,-0.6172,0.1876,-0.1658
13.26,0.1371,0.4399,12.1322,-0.2067,0.5239,-0.0229
13.28,0.8429,-0.2325,11.8582,0.375,0.4312,0.0868
13.3,1.4884,0.1996,10.4255,0.7357,-0.0152,0.1975
13.32,0.8383,-0.1057,9.0607,0.7081,-0.3505,0.2312
13.34,0.3242,-0.479,8.2503,0.4683,-0.3588,0.2235
13.36,1.0203,-0.1268,9.5366,0.1261,-0.1074,0.1262
13.38,-0.119,-0.8904,8.5751,-0.1246,0.1105,0.0435
13.4,0.8975,-0.0437,9.9915,-0.2,0.1553,-0.0197
13.42,0.2922,-0.2867,9.3832,-0.1044,0.0771,-0.0123
13.44,0.4823,-0.3583,10.1622,-0.0697,-0.0236,-0.0315
13.46,0.5972,-0.0788,10.0956,-0.0117,-0.0549,-0.025
13.48,0.3695,-0.4544,9.7448,0.0229,0.0072,-0.0053
13.5,0.5746,-0.2939,9.9411,0.0267,-0.0099,-0.0012
13.52,0.3573,-0.2194,9.7815,0.0526,0.0002,-0.003
13.54,0.0111,-0.3039,9.8869,0.0077,-0.0201,0.0067
13.56,0.2209,-0.4472,9.7341,-0.0366,-0.0046,-0.0092
13.58,0.3033,-0.2034,9.7686,0.0037,0.0522,-0.0105
13.6,0.1905,-0.3499,9.748,-0.0041,-0.0138,0.0082
13.62,0.1258,-0.4066,9.9292,-0.0137,-0.0398,-0.028
13.64,0.569,-0.3939,9.7495,0.0413,-0.0092,-0.037
13.66,0.4281,-0.1678,9.5851,0.1621,0.0643,-0.0575
13.68,0.3454,-0.348,9.5301,0.2594,0.1239,-0.0246
13.7,0.3111,-0.4346,9.1826,0.1742,0.1778,0.0477
13.72,0.4325,-0.1683,9.2456,-0.0712,-0.0374,0.1043
13.74,0.4186,0.0146,8.9998,-0.4477,-0.3267,0.2035
13.76,-0.1163,-0.3664,9.0182,-0.7256,-0.4189,0.26
13.78,-0.8257,-0.7492,9.6594,-0.78,-0.0754,0.2142
13.8,-0.6641,-0.8743,11.4484,-0.4901,0.3913,0.1448
13.82,0.2781,-1.1607,12.6441,0.0804,0.6019,-0.0222
13.84,1.6887,-0.8725,11.6236,0.6251,0.2939,-0.1776
13.86,1.3951,-0.9007,9.4868,0.8227,-0.1936,-0.24
13.88,0.814,-0.7517,8.9448,0.6911,-0.4294,-0.2314
13.9,0.5447,-0.246,8.9414,0.3785,-0.2782,-0.1663
13.92,0.3437,-0.1554,9.2486,-0.0206,0.0251,-0.091
13.94,0.3966,-0.5605,9.2859,-0.1801,0.1821,0.0083
13.96,0.5023,-0.2974,9.7751,-0.1915,0.1499,0.0017
13.98,0.0367,-0.3521,10.0504,-0.14,0.0174,0.0314
14.0,0.3359,-0.3808,9.8938,-0.0636,-0.0253,0.0177
14.02,0.3414,-0.4044,9.8942,0.0014,-0.0253,0.0376
14.04,0.4798,-0.2084,9.8644,0.0147,-0.0184,-0.0103
14.06,0.2743,-0.4935,9.7252,0.0533,0.0223,0.0074
14.08,0.1434,-0.5232,9.8482,-0.0105,-0.0224,0.0198
14.1,0.342,-0.42,9.8351,0.0018,0.0148,0.0244
14.12,0.2684,-0.6492,9.8099,0.0224,0.0102,0.0038
14.14,0.2868,-0.3284,9.7771,-0.0333,-0.0123,-0.0108
14.16,0.4226,-0.2766,9.9244,0.0224,0.0041,0.0136
14.18,0.393,-0.4694,10.0035,-0.005,0.0119,0.0156
14.2,0.7748,-0.1277,9.7447,0.1116,-0.0123,0.044
14.22,0.4807,-0.2401,9.8534,0.1347,0.0608,0.0458
14.24,0.6484,-0.1656,9.4734,0.1669,0.1309,-0.0001
14.26,0.3247,-0.3462,9.3381,0.0673,0.0525,-0.0469
14.28,0.2185,0.0995,9.1919,-0.189,-0.1714,-0.1286
14.3,0.2649,-0.1247,8.9137,-0.5114,-0.3448,-0.1785
14.32,-0.2708,0.0391,9.4271,-0.656,-0.277,-0.2203
14.34,-0.5934,-0.0438,10.623,-0.5638,0.1464,-0.1638
14.36,-0.1228,0.1228,11.9422,-0.2157,0.4618,-0.0575
14.38,1.0405,0.2821,12.2631,0.2801,0.4211,0.0748
14.4,1.3555,0.2892,10.3585,0.6111,0.0299,0.2015
14.42,0.6851,0.1572,9.2655,0.6631,-0.3128,0.1942
14.44,0.3852,-0.1497,9.047,0.391,-0.3189,0.1768
14.46,0.5828,-0.0614,9.1821,0.1182,-0.1064,0.1303
14.48,0.3143,-0.291,9.4782,-0.1139,0.0835,0.0351
14.5,0.1192,-0.0617,9.5181,-0.1611,0.1545,0.0034
14.52,0.1406,0.1252,9.5579,-0.127,0.0578,-0.0276
14.54,0.1488,-0.2331,9.9355,-0.0771,-0.0317,0.0051
14.56,0.3222,-0.0504,9.8678,-0.0146,-0.0322,-0.0346
14.58,0.4292,-0.2914,9.7073,0.0247,-0.024,0.0069
14.6,0.4928,-0.0745,9.8032,0.0139,-0.0033,-0.0021
14.62,0.5639,-0.0406,9.8931,-0.0078,-0.0288,0.0039
14.64,0.3557,-0.2133,9.7895,0.0029,0.0252,0.0038
14.66,0.3299,0.0118,10.0064,-0.0323,0.0055,-0.0113
14.68,0.4766,-0.1281,9.9868,-0.0013,-0.0139,-0.044
14.7,0.4569,0.15,9.798,0.0227,-0.0322,-0.011
14.72,0.6627,-0.0561,9.838,0.0798,-0.0044,-0.0268
14.74,0.6002,-0.0132,9.6346,0.1668,0.0447,-0.031
14.76,0.3597,-0.0843,9.3488,0.1832,0.1478,-0.0011
14.78,0.3724,-0.148,9.1922,0.1526,0.1253,0.058
14.8,0.522,-0.0675,9.049,-0.0943,-0.1163,0.1181
14.82,0.0289,-0.2972,8.9227,-0.4568,-0.3712,0.2082
14.84,-0.2896,-0.3869,9.0327,-0.7171,-0.3149,0.2416
14.86,-0.5065,-0.2628,10.2003,-0.6948,0.0216,0.2167
14.88,-0.1857,-0.5995,11.8387,-0.3326,0.4571,0.1078
14.9,0.5859,-0.6667,12.1377,0.2002,0.5449,-0.0689
14.92,1.6373,-0.6422,11.0579,0.6279,0.211,-0.1763
14.94,1.1502,-0.2634,9.2797,0.7677,-0.2457,-0.2376
14.96,0.3902,-0.3758,8.9492,0.5922,-0.3968,-0.1989
14.98,0.6384,-0.276,8.9332,0.2247,-0.2207,-0.1423
15.0,0.5037,-0.351,9.4165,-0.0482,0.0912,-0.0592
15.02,0.3006,-0.1064,9.2952,-0.1713,0.1664,-0.0008
15.04,0.0633,-0.5918,9.4807,-0.1795,0.0914,0.0254
15.06,0.0543,-0.3459,9.7923,-0.1257,0.0259,0.0182
15.08,0.3006,-0.3658,9.884,-0.0348,-0.0581,0.022
15.1,0.4246,-0.5603,9.8364,0.0,-0.0023,0.0314
15.12,0.219,-0.3602,9.7517,0.0042,0.0197,0.0108
15.14,0.0818,-0.5028,9.7073,0.0052,-0.0041,-0.0111
15.16,0.2336,-0.2283,9.6352,0.0173,-0.014,-0.0142
15.18,0.5987,-0.5304,9.8628,0.0209,-0.0346,0.0159
15.2,0.1888,-0.4602,9.947,0.0481,-0.042,0.0291
15.22,0.4596,-0.3395,9.5924,0.1269,0.019,0.0366
15.24,0.1577,-0.7648,9.4768,0.2212,0.1006,0.0405
15.26,0.3506,-0.4393,9.3991,0.2316,0.17,0.0072
15.28,0.2989,-0.497,9.0695,0.0491,0.0774,-0.0701
15.3,0.3031,-0.6251,8.9544,-0.2229,-0.2168,-0.1552
15.32,-0.1232,-0.578,8.7339,-0.5757,-0.4428,-0.2132
15.34,-0.6138,-0.403,9.1121,-0.763,-0.2427,-0.219
15.36,-0.9347,-0.0625,10.6973,-0.6604,0.1838,-0.1884
15.38,-0.2225,0.0326,12.6574,-0.1796,0.5546,-0.0447
15.4,1.2636,0.1492,12.7174,0.3598,0.4623,0.1099
15.42,1.2799,-0.1603,10.1796,0.7387,0.0317,0.2046
15.44,0.8691,-0.1905,8.9595,0.7374,-0.3522,0.2394
15.46,0.5046,-0.3048,8.8276,0.509,-0.3954,0.1991
15.48,0.3088,-0.4303,9.0171,0.13,-0.1254,0.1253
15.5,0.2428,-0.4431,9.415,-0.1283,0.1513,0.037
15.52,0.2902,-0.6042,9.53,-0.2196,0.1622,-0.0368
15.54,0.1023,-0.596,9.5424,-0.1751,0.0596,-0.0154
15.56,0.0128,-0.4326,9.8792,-0.0769,-0.0155,-0.0148
15.58,0.352,-0.3489,9.8609,-0.0259,-0.0603,-0.0344
15.6,0.3922,-0.4645,10.2217,-0.0049,-0.0275,-0.0219
15.62,0.4509,-0.4294,9.7046,0.0116,-0.0157,0.0042
15.64,0.4547,-0.383,9.8212,-0.0059,0.0137,0.0096
15.66,0.42,-0.2071,9.7006,-0.0123,0.0099,-0.0001
15.68,0.53,-0.291,9.8225,-0.005,-0.0367,-0.0041
15.7,0.2232,-0.0904,9.9074,0.0062,0.0031,-0.0094
15.72,0.6155,-0.25,9.6722,-0.0096,0.0292,0.0016
15.74,0.5218,-0.2673,9.8923,0.0149,-0.0116,-0.0115
15.76,0.6976,0.0417,9.8281,-0.0077,-0.0302,-0.0025
15.78,0.2813,-0.3903,9.7843,0.0346,-0.0097,-0.033
15.8,0.3954,-0.178,9.8531,0.0717,0.0126,-0.0143
15.82,0.2973,-0.1863,9.608,0.1295,0.1007,-0.0313
15.84,0.2918,0.0997,9.3775,0.1727,0.1137,0.0036
15.86,0.3984,-0.2496,9.2864,0.0646,0.0313,0.0502
15.88,0.5656,-0.008,9.3247,-0.2029,-0.2209,0.1279
15.9,0.0949,0.0501,9.2577,-0.5044,-0.336,0.1708
15.92,-0.2287,-0.2258,9.2599,-0.6045,-0.1893,0.1853
15.94,-0.1848,-0.3336,10.9453,-0.5088,0.1742,0.1389
15.96,-0.06,-0.4416,11.8811,-0.1047,0.4301,0.0119
15.98,1.0305,-0.4335,11.1332,0.3258,0.3556,-0.0797
16.0,1.2743,-0.3988,10.1793,0.5771,-0.0115,-0.1738
16.02,0.6738,-0.2439,9.2628,0.5723,-0.2693,-0.1977
16.04,0.6395,0.1189,9.3401,0.3746,-0.3007,-0.1746
16.06,0.4148,0.0941,9.1067,0.0958,-0.0834,-0.0672
16.08,0.3715,0.0554,9.474,-0.107,0.0972,-0.0422
16.1,0.3214,0.0497,9.3686,-0.1654,0.1354,0.0095
16.12,0.0476,-0.0528,9.6622,-0.1383,0.0548,0.0364
16.14,0.0789,-0.1555,10.0281,-0.1019,-0.0043,0.0284
16.16,0.5114,-0.0828,9.8309,-0.0128,-0.0164,0.0159
16.18,0.4803,-0.3337,9.9614,-0.0116,-0.0046,0.0304
16.2,0.2332,-0.313,9.9294,0.0344,-0.007,-0.007
16.22,0.4105,-0.2042,9.6528,0.0165,-0.009,-0.0119
16.24,0.3808,-0.2195,9.8825,0.0055,0.0187,0.0158
16.26,0.5618,-0.2154,9.7008,-0.0131,-0.0102,0.0103
16.28,0.3644,0.0729,9.7731,-0.0306,-0.0353,-0.0019
16.3,0.5952,-0.3251,9.8898,0.0441,-0.0419,0.0216
16.32,0.4913,-0.3728,9.8972,0.1114,-0.0066,0.0314
16.34,0.3379,-0.3575,9.4639,0.1882,0.0959,0.0181
16.36,0.4376,-0.3807,9.3074,0.2088,0.1651,0.0184
16.38,0.3617,-0.5684,9.2543,0.0991,0.0538,-0.0639
16.4,0.1226,-0.6439,8.8372,-0.2056,-0.2042,-0.1451
16.42,-0.1823,-0.3724,8.7502,-0.5754,-0.4321,-0.2206
16.44,-0.5976,-0.2412,9.0472,-0.7926,-0.3162,-0.2555
16.46,-1.014,-0.1095,10.4871,-0.6696,0.1296,-0.1844
16.48,-0.2329,0.1067,13.121,-0.2418,0.5546,-0.051
16.5,0.9738,0.0374,12.4667,0.3238,0.5163,0.095
16.52,1.2854,-0.244,10.0129,0.7332,0.029,0.2004
16.54,0.9353,-0.0804,9.1791,0.7995,-0.3501,0.2342
16.56,0.2191,-0.6118,8.8423,0.5261,-0.3694,0.2077
16.58,0.4988,-0.7831,8.9827,0.1468,-0.1654,0.1486
16.6,0.0064,-0.4252,9.1366,-0.1062,0.1029,0.0418
16.62,-0.0153,-0.467,9.5757,-0.1774,0.1669,-0.0059
16.64,0.1373,-0.7157,9.6378,-0.1726,0.0502,-0.0592
16.66,-0.013,-0.4054,9.8694,-0.0735,-0.0078,-0.033
16.68,0.0793,-0.3495,10.0239,-0.0244,-0.0485,-0.0385
16.7,0.5546,-0.6604,9.8293,0.0154,-0.0336,-0.004
16.72,0.6383,-0.6964,9.5144,-0.0074,0.0077,-0.0197
16.74,-0.0574,-0.4988,9.9009,0.006,0.0016,0.0036
16.76,0.067,-0.5028,9.5476,0.0002,0.0026,0.0005
16.78,0.2617,-0.493,9.694,-0.0339,0.019,-0.0117
16.8,0.2542,-0.4449,9.7517,0.0026,-0.0094,0.0042
16.82,0.443,-0.3288,10.0512,-0.0018,-0.031,-0.017
16.84,0.3415,-0.3073,9.8407,0.0854,-0.0453,-0.0302
16.86,0.2887,-0.2562,9.7063,0.1385,0.0672,-0.022
16.88,0.4999,-0.1718,9.5479,0.2066,0.1173,-0.0072
16.9,0.2044,-0.0398,9.5109,0.1279,0.1475,0.0309
16.92,0.4091,-0.4293,9.1773,-0.07,-0.0354,0.0888
16.94,0.5715,-0.5903,8.8768,-0.3558,-0.2977,0.1818
16.96,-0.4265,-0.516,9.0527,-0.6696,-0.3882,0.245
16.98,-0.7613,-0.5455,9.8421,-0.7236,-0.0961,0.2032
17.0,-0.7579,-0.7897,11.6315,-0.442,0.3635,0.154
17.02,0.4592,-0.7287,12.6942,0.0362,0.5599,-0.011
17.04,1.0148,-0.3505,11.2624,0.5318,0.2778,-0.1471
17.06,0.9739,-0.385,9.6804,0.7446,-0.1557,-0.2328
17.08,1.0514,-0.3049,9.0189,0.6265,-0.4263,-0.2475
17.1,0.3112,0.0597,9.1422,0.3289,-0.2942,-0.1607
17.12,0.4198,-0.098,9.1128,0.0094,-0.0155,-0.0898
17.14,0.3113,-0.0322,9.1941,-0.1871,0.1324,-0.014
17.16,0.1369,0.2063,9.4565,-0.2112,0.1413,0.0166
17.18,0.1178,-0.0219,9.7856,-0.1294,0.0129,0.0355
17.2,0.2489,-0.1948,9.5998,-0.0864,-0.0065,0.0185
17.22,0.5116,-0.2097,10.1481,-0.0062,-0.0129,0.0157
17.24,0.4687,-0.1617,9.7643,0.0118,-0.0115,0.0024
17.26,0.3118,0.0754,9.6819,0.0079,0.0105,0.0127
17.28,0.4967,-0.1698,9.7288,0.0225,0.0097,0.0183
17.3,0.1433,0.1228,9.8237,-0.0327,0.0027,-0.0181
17.32,0.3903,-0.0362,9.8482,0.0103,0.0088,0.0054
17.34,0.4784,-0.0517,9.6957,-0.033,0.0071,0.0093
17.36,0.4849,-0.192,9.7786,-0.0074,-0.0412,-0.0068
17.38,0.407,-0.111,9.9731,0.0022,-0.0473,-0.0122
17.4,0.3135,0.2106,10.0166,0.0343,-0.0467,0.0162
17.42,0.7753,-0.1331,9.7564,0.1459,0.0363,0.0356
17.44,0.3019,-0.116,9.5919,0.1895,0.1041,0.0357
17.46,0.357,-0.4504,9.0358,0.1922,0.1606,-0.0159
17.48,0.359,-0.4111,9.1165,-0.003,-0.0024,-0.0819
17.5,0.3843,-0.1475,9.0683,-0.3407,-0.2455,-0.1617
17.52,0.0892,-0.0085,8.7482,-0.6084,-0.4088,-0.2462
17.54,-0.5531,0.1101,9.4038,-0.7305,-0.2085,-0.212
17.56,-0.5004,0.2742,11.5021,-0.5333,0.27,-0.1633
17.58,0.4191,0.4109,12.611,-0.0808,0.5466,-0.0156
17.6,0.8259,0.2716,11.449,0.4426,0.3893,0.1106
17.62,1.4553,0.021,9.8902,0.7248,-0.0676,0.2082
17.64,0.8395,-0.1452,9.1327,0.6579,-0.3565,0.2358
17.66,0.3897,-0.5011,8.9379,0.4078,-0.3179,0.1597
17.68,0.3093,-0.3301,9.0131,0.07,-0.0352,0.1033
17.7,0.2514,-0.5285,9.3692,-0.1515,0.1206,0.0525
17.72,0.1707,-0.4651,9.6083,-0.2131,0.1128,-0.0264
17.74,0.0447,-0.1829,9.6447,-0.1641,0.0285,-0.0337
17.76,0.3448,-0.3705,10.0821,-0.0678,-0.0178,-0.0302
17.78,0.0071,-0.5264,9.9408,-0.0103,-0.049,-0.0196
17.8,0.2234,-0.2333,9.7733,0.0006,-0.0004,-0.0051
17.82,0.1852,-0.35,9.8685,0.0117,-0.0192,-0.0136
17.84,0.3289,-0.3584,10.0718,-0.0033,0.0084,0.0001
17.86,0.178,-0.3828,9.744,-0.0181,-0.0246,0.0202
17.88,0.1955,-0.452,9.9545,-0.0201,-0.0174,-0.0244
17.9,0.2575,-0.679,9.7702,0.0275,0.0091,-0.0372
17.92,0.1955,-0.5576,9.6651,-0.0051,-0.0101,0.008
17.94,0.393,-0.2579,9.8434,-0.0288,-0.0181,-0.0093
17.96,0.1713,-0.4159,10.0048,-0.0265,-0.0161,-0.0175
17.98,0.2051,-0.395,10.0697,0.0272,-0.0399,-0.0137
18.0,0.5156,-0.4311,9.8749,0.0603,0.0075,-0.0368
18.02,0.0499,-0.2932,9.529,0.1673,0.1008,-0.0446
18.04,0.2291,-0.3535,9.4627,0.1797,0.173,-0.0036
18.06,0.2153,-0.1052,9.248,0.0582,0.0806,0.0763
18.08,-0.005,-0.3762,9.2198,-0.2331,-0.1893,0.1492
18.1,-0.2088,-0.6886,8.9538,-0.5609,-0.3818,0.1989
18.12,-0.5967,-0.5474,9.385,-0.7372,-0.2972,0.2312
18.14,-0.7031,-0.602,10.544,-0.6447,0.1774,0.1595
18.16,-0.072,-0.9069,12.5244,-0.1871,0.5483,0.0616
18.18,0.9313,-0.6138,12.366,0.3416,0.4798,-0.0907
18.2,1.3104,-0.6043,10.0991,0.6979,0.0373,-0.2078
18.22,0.9482,-0.6107,9.1192,0.7487,-0.3644,-0.2452
18.24,0.5585,-0.4805,8.9977,0.4814,-0.3624,-0.209
18.26,0.114,-0.0181,9.0752,0.1442,-0.1462,-0.1136
18.28,0.1108,-0.2439,8.9612,-0.1303,0.0778,-0.0533
18.3,0.0183,-0.2348,9.7097,-0.2201,0.1772,0.0098
18.32,0.0708,-0.2819,9.5452,-0.1945,0.082,0.0381
18.34,0.0496,-0.3653,9.6991,-0.0646,0.0034,0.0416
18.36,0.334,-0.4121,10.0118,-0.0179,-0.048,0.0026
18.38,0.407,-0.2547,9.6397,0.0025,-0.0314,0.0302
18.4,0.3835,-0.1299,9.6997,-0.0056,0.0132,0.0265
18.42,0.4179,-0.5919,9.6839,0.0011,0.0182,0.0117
18.44,0.3641,-0.2495,9.5964,-0.004,-0.0287,0.0137
18.46,0.2759,0.0996,9.9064,0.0258,-0.0069,0.0127
18.48,0.5096,-0.1509,9.8973,-0.0147,-0.0132,0.0041
18.5,0.1512,-0.1159,10.0434,-0.011,-0.0114,-0.0167
18.52,0.1247,-0.1473,9.7834,-0.0194,-0.0591,-0.0035
18.54,0.8873,0.5521,10.7962,0.008,-0.0119,0.0265
18.56,0.4651,-0.1644,9.9067,0.072,-0.039,0.0355
18.58,0.8903,0.083,10.0384,0.1378,0.0449,0.051
18.6,0.4736,-0.4236,9.3767,0.2487,0.1615,0.0371
18.62,0.3688,-0.2518,9.3357,0.2076,0.1588,-0.0337
18.64,-0.6732,-1.5158,7.7435,-0.0218,-0.0521,-0.1331
18.66,-0.4307,-0.5797,8.2085,-0.4178,-0.3423,-0.1963
18.68,-0.0121,0.0605,8.8588,-0.7568,-0.4526,-0.2811
18.7,-0.4863,0.4087,10.0386,-0.8203,-0.1362,-0.2255
18.72,-1.1061,-0.0259,11.4357,-0.5253,0.3984,-0.126
18.74,1.2849,0.9774,13.9469,0.0565,0.6418,0.0348
18.76,1.935,0.6076,12.1331,0.5995,0.3435,0.1634
18.78,1.5486,0.233,9.8507,0.8444,-0.1712,0.2595
18.8,0.6646,-0.4578,8.3403,0.7276,-0.4631,0.2493
18.82,1.0027,-0.1249,9.415,0.3412,-0.3098,0.1943
18.84,0.7871,0.1215,9.4876,0.0166,-0.0146,0.0977
18.86,0.4063,-0.5257,9.2563,-0.1933,0.168,0.0121
18.88,0.0274,-0.1064,9.3044,-0.2061,0.1501,-0.0453
18.9,0.0966,0.1064,9.5997,-0.1329,0.0449,-0.0563
18.92,0.3914,-0.1847,9.7412,-0.066,-0.0263,-0.0272
18.94,0.7506,0.0765,10.2433,-0.0172,-0.067,-0.0321
18.96,-0.5722,-0.8469,8.436,-0.0232,-0.0115,0.0107
18.98,-0.1446,-0.7502,8.8377,0.0391,0.0042,-0.005
19.0,0.2281,-0.0583,9.7034,0.0114,0.0126,-0.0148
19.02,-0.1173,-0.6287,9.2213,0.0187,0.0001,-0.0075
19.04,-0.659,-0.9324,8.5441,-0.0206,-0.0022,0.0046
19.06,0.1689,-0.3394,9.656,-0.0172,-0.0017,-0.0023
19.08,-0.0925,-0.2784,9.6975,-0.0291,-0.0241,0.0024
19.1,0.2308,-0.1045,9.8902,-0.0156,-0.0075,-0.0062
19.12,0.4171,-0.2378,10.069,0.0161,-0.0205,-0.0083
19.14,0.3972,-0.0433,9.714,0.0167,-0.0143,-0.0132
19.16,0.4443,-0.2566,9.7027,0.1042,0.0451,-0.0087
19.18,0.5896,-0.3983,9.4913,0.1608,0.1291,-0.0142
19.2,0.2546,-0.0634,9.4359,0.0995,0.122,0.0303
19.22,0.2993,-0.2111,9.4778,-0.0603,-0.0845,0.1039
19.24,0.0798,-0.4306,9.1305,-0.3971,-0.2698,0.1609
19.26,-0.1542,-0.5847,9.0224,-0.6102,-0.2959,0.193
19.28,-0.3484,-0.6018,9.8646,-0.6154,-0.0305,0.164
19.3,-0.5095,-0.6193,11.1572,-0.3444,0.3492,0.0884
19.32,0.696,-0.8626,12.5036,0.141,0.4411,-0.0248
19.34,1.0778,-0.8353,10.84,0.519,0.1662,-0.1588
19.36,0.7196,-0.5501,9.4129,0.6138,-0.1971,-0.1808
19.38,0.616,-0.3736,9.0741,0.5249,-0.351,-0.1913
19.4,0.6298,-0.4129,9.232,0.2535,-0.1965,-0.1206
19.42,0.0842,-0.2157,9.1495,-0.0292,0.023,-0.0364
19.44,0.1911,-0.6523,9.5414,-0.1524,0.1351,-0.0082
19.46,0.0616,-0.1603,9.418,-0.1439,0.1118,0.0215
19.48,0.0486,-0.3109,9.8272,-0.0944,0.0168,0.0384
19.5,-0.0038,-0.5655,9.9152,-0.0515,-0.0216,0.0298
19.52,0.2693,-0.3735,9.8291,-0.001,-0.0182,0.0184
19.54,0.2554,-0.4313,9.896,-0.013,-0.0127,-0.0176
19.56,0.2068,-0.3869,9.8477,-0.0165,0.0136,-0.0027
19.58,0.316,-0.4659,9.6295,-0.0283,0.0085,-0.0097
19.6,0.4041,-0.5381,9.7704,-0.0033,-0.0052,0.0026
19.62,0.1411,-0.4738,9.8431,-0.0351,-0.0211,0.01
19.64,0.2192,-0.5688,9.9346,-0.0027,-0.0444,0.0219
19.66,0.1925,-0.3942,10.0548,0.058,-0.0181,0.0333
19.68,0.4587,-0.2424,10.0462,0.0938,-0.0033,0.068
19.7,0.5605,-0.4277,9.4386,0.1942,0.1192,0.0225
19.72,0.3669,-0.5198,9.1217,0.2078,0.1594,-0.0197
19.74,0.3689,-0.471,9.1772,0.0614,0.0356,-0.0688
19.76,0.1459,-0.5104,9.0961,-0.247,-0.2469,-0.1892
19.78,-0.1629,-0.4316,8.7862,-0.6346,-0.4509,-0.2129
19.8,-0.8446,-0.3652,9.3468,-0.8667,-0.2628,-0.2428
19.82,-0.5842,0.1401,11.1013,-0.6775,0.2191,-0.1832
19.84,-0.0595,0.3568,12.7961,-0.1842,0.6052,-0.0632
19.86,1.0473,0.0971,12.6504,0.4253,0.4595,0.1122
19.88,1.5047,-0.1037,10.069,0.7473,-0.0108,0.2325
19.9,1.1052,-0.1426,8.9406,0.7898,-0.4144,0.2698
19.92,0.5318,-0.0592,8.8269,0.4863,-0.3888,0.2139
19.94,0.303,-0.3279,8.9961,0.0919,-0.1179,0.1179
19.96,0.0262,-0.2611,9.3775,-0.1639,0.1581,0.0303
19.98,0.1632,-0.2253,9.5249,-0.236,0.1665,-0.0055
20.0,0.0397,-0.3763,9.5732,-0.1897,0.0747,-0.0397
20.02,0.2067,-0.2351,9.9058,-0.0942,-0.0255,-0.0548
20.04,0.3122,-0.1652,9.9027,-0.0146,-0.0229,-0.026
20.06,0.123,0.0607,9.9901,0.0013,-0.0193,-0.0115
20.08,0.292,-0.4451,9.7736,0.0178,-0.0061,-0.0147
20.1,0.187,0.0153,9.6899,0.0139,-0.0068,0.0089
20.12,0.4772,-0.1767,9.9077,-0.017,0.0115,-0.021
20.14,0.2835,-0.159,9.9624,0.0197,0.0068,0.0108
20.16,0.4739,-0.0496,9.8766,-0.0169,0.0078,-0.017
20.18,0.1377,0.0112,9.8436,-0.0004,0.0062,-0.0096
20.2,0.2862,0.1459,9.9295,0.0006,-0.0372,-0.018
20.22,0.4415,-0.3523,10.0742,0.0182,-0.0168,-0.0301
20.24,0.4368,0.0056,9.8857,0.0852,0.0034,-0.0374
20.26,0.356,0.0959,9.5948,0.1727,0.1033,-0.0397
20.28,0.3831,0.2587,9.4878,0.1954,0.1637,0.0176
20.3,0.2789,0.1488,9.1243,0.0469,0.0539,0.0625
20.32,0.2305,0.1763,9.1223,-0.2683,-0.2253,0.1433
20.34,0.0853,-0.205,8.8151,-0.6308,-0.4231,0.2308
20.36,-0.5497,-0.3426,9.3682,-0.7776,-0.2731,0.2319
20.38,-0.8995,-0.5167,10.6257,-0.6492,0.2172,0.177
20.4,0.0615,-0.6425,12.6495,-0.1903,0.557,0.0703
20.42,1.0682,-0.5166,12.2596,0.3387,0.4397,-0.0924
20.44,1.2798,-0.3181,9.9366,0.7036,-0.0299,-0.2169
20.46,1.2969,-0.1287,9.0763,0.7432,-0.3744,-0.2415
20.48,0.6398,-0.1637,8.8971,0.477,-0.3615,-0.2126
20.5,0.1717,0.0712,9.2566,0.1268,-0.1129,-0.1188
20.52,0.3557,0.0911,9.2816,-0.1514,0.0933,-0.0371
20.54,0.0757,-0.2831,9.5271,-0.214,0.1328,0.0082
20.56,-0.0859,-0.0899,9.6243,-0.1544,0.0631,0.0513
20.58,-0.0335,-0.0677,9.7439,-0.1168,-0.0305,0.0243
20.6,0.2356,-0.2087,10.0391,-0.0397,-0.0619,0.0337
20.62,0.1201,-0.3421,9.5384,0.0008,-0.0342,-0.0099
20.64,0.3561,-0.052,9.8057,-0.0177,-0.0205,0.0097
20.66,0.2974,-0.3538,9.7443,0.0194,0.0206,0.0113
20.68,0.1591,-0.5853,9.7825,-0.0089,0.0105,0.0145
20.7,0.3856,-0.2941,9.5045,-0.005,-0.0045,-0.0019
20.72,0.1227,-0.2519,9.8513,0.0028,-0.0261,0.0084
20.74,0.3384,-0.2264,9.7591,-0.0217,-0.0316,-0.001
20.76,0.1601,-0.5449,9.8406,0.0321,-0.0315,0.0072
20.78,0.1995,-0.4813,9.7067,0.0928,-0.002,0.0232
20.8,0.2441,-0.6489,9.5241,0.1241,0.068,0.0248
20.82,0.2054,-0.6411,9.3895,0.156,0.1414,-0.0031
20.84,0.2622,-0.4393,9.3998,0.033,0.0478,-0.0514
20.86,0.0658,-0.5414,8.9962,-0.2093,-0.1447,-0.1261
20.88,-0.0089,-0.6445,8.8088,-0.4862,-0.3532,-0.2046
20.9,-0.2412,-0.4904,9.1465,-0.6696,-0.2558,-0.1729
20.92,-0.8373,-0.257,10.2747,-0.5812,0.109,-0.1665
20.94,-0.228,-0.2243,12.1825,-0.2004,0.4557,-0.0558
20.96,1.0289,-0.1591,12.378,0.2579,0.4163,0.0811
20.98,1.0157,-0.0359,10.1342,0.6055,0.0542,0.1689
21.0,0.8179,-0.4672,9.3132,0.614,-0.2662,0.1875
21.02,0.6524,-0.297,9.1278,0.4467,-0.3414,0.2023
21.04,0.3381,-0.4509,9.0666,0.1014,-0.1132,0.1022
21.06,0.3581,-0.5627,9.2081,-0.0825,0.1053,0.0561
21.08,0.1509,-0.6209,9.4327,-0.1643,0.1455,-0.0149
21.1,-0.1457,-0.4526,9.6077,-0.1603,0.0532,-0.0356
21.12,0.0031,-0.3296,9.803,-0.1002,0.0074,-0.0257
21.14,0.1746,-0.394,9.9397,-0.0375,-0.0409,-0.0108
21.16,0.3229,-0.3114,9.6286,0.003,-0.032,-0.0212
21.18,0.2647,-0.4827,9.6929,-0.0135,-0.0073,-0.0018
21.2,0.2462,-0.2206,9.6458,0.007,0.0092,-0.0072
21.22,0.0814,-0.3328,9.8523,-0.0287,-0.0029,0.0028
21.24,0.0306,-0.2365,9.7143,-0.0533,0.0043,-0.0171
21.26,0.3269,-0.2624,9.8682,-0.0173,0.0005,-0.007
21.28,0.0506,-0.1895,9.8951,0.0554,-0.0452,-0.0385
21.3,0.3309,-0.3343,9.7209,0.0422,-0.0223,-0.0176
21.32,0.508,-0.0452,9.7355,0.1225,0.0308,-0.0287
21.34,0.4513,-0.0985,9.4447,0.1965,0.137,-0.005
21.36,0.6234,-0.1423,9.5083,0.15,0.146,-0.0098
21.38,0.5553,0.149,9.4425,-0.0182,0.0132,0.1019
21.4,0.214,-0.076,9.2107,-0.2831,-0.2495,0.1641
21.42,-0.0346,-0.2112,9.0154,-0.6456,-0.4269,0.2188
21.44,-0.6465,-0.1154,9.4349,-0.7266,-0.196,0.216
21.46,-0.6026,-0.2227,10.5937,-0.5265,0.2407,0.1376
21.48,0.2997,-0.5506,12.4539,-0.1192,0.5441,0.0235
21.5,1.0417,-0.783,11.6972,0.4179,0.3873,-0.113
21.52,1.0023,-0.2737,9.6982,0.7021,-0.0752,-0.2301
21.54,0.8831,0.0214,9.1654,0.664,-0.4069,-0.2265
21.56,0.7496,-0.0867,8.7527,0.3903,-0.3477,-0.1823
21.58,0.488,0.2761,9.3202,0.0686,-0.0691,-0.0962
21.6,0.5511,-0.116,9.2951,-0.1497,0.1528,-0.0429
21.62,0.274,0.2376,9.4652,-0.2011,0.1569,0.0177
21.64,0.404,0.1601,9.6257,-0.152,0.0448,0.0127
21.66,0.3084,-0.0658,9.9278,-0.0707,-0.0269,0.039
21.68,0.1651,0.4022,10.0378,-0.0253,-0.0298,0.0098
21.7,0.3572,-0.1706,9.809,0.0114,-0.0356,0.0262
21.72,0.4282,-0.2067,9.8129,0.0359,-0.0031,-0.0021
21.74,0.3999,-0.2281,9.7678,-0.0001,-0.0082,0.0257
21.76,0.6611,0.0844,9.8876,0.0034,0.0175,-0.0149
21.78,0.4293,-0.257,9.6296,0.0219,-0.0047,0.0235
21.8,0.3409,-0.1844,9.7295,0.0027,-0.0048,-0.0048
21.82,0.3739,-0.149,9.7657,-0.027,-0.0432,-0.0069
21.84,0.3146,-0.1463,9.8537,-0.0346,-0.0367,0.0145
21.86,0.3773,-0.543,9.9051,0.0581,-0.0282,0.0336
21.88,0.5661,-0.3536,9.8654,0.0899,0.011,0.0435
21.9,0.3922,-0.5252,9.4726,0.1794,0.0849,0.0045
21.92,0.3294,-0.6359,9.427,0.1645,0.147,0.0022
21.94,0.4845,-0.3696,9.3591,0.055,0.073,-0.0439
21.96,0.1122,-0.4363,9.0799,-0.2069,-0.2083,-0.1465
21.98,-0.0629,-0.2724,9.2119,-0.5454,-0.3455,-0.1946
22.0,-0.6272,-0.0661,9.2497,-0.7399,-0.2605,-0.2032
22.02,-0.6614,-0.1811,10.6494,-0.5952,0.1565,-0.1818
22.04,0.3138,-0.0023,12.7236,-0.1787,0.5075,-0.0379
22.06,0.6226,0.105,11.983,0.3004,0.416,0.071
22.08,1.0125,-0.1412,10.0884,0.6539,0.0159,0.1898
22.1,0.7728,-0.0288,9.1787,0.6678,-0.3441,0.2033
22.12,0.415,-0.5421,9.2741,0.4301,-0.3245,0.1962
22.14,0.3409,-0.8457,9.0581,0.1049,-0.1121,0.116
22.16,0.5,-0.6012,9.3053,-0.1036,0.1258,0.0418
22.18,0.272,-0.4022,9.4942,-0.1898,0.1032,-0.0277
22.2,-0.0281,-0.7288,9.7164,-0.1726,0.0455,-0.0437
22.22,0.1714,-0.3058,9.8998,-0.0902,0.0018,-0.0327
22.24,0.1067,-0.2934,9.9493,-0.0517,-0.0324,-0.0222
22.26,-0.0079,-0.3085,9.7868,0.0147,-0.0124,-0.0314
22.28,0.3526,-0.5,9.7803,-0.0004,0.034,0.0165
22.3,0.1629,-0.4935,9.786,-0.0072,-0.0028,-0.0023
22.32,0.2572,-0.6934,9.9815,-0.0,0.0297,-0.008
22.34,0.0123,-0.5992,9.8806,0.0003,0.0024,0.0009
22.36,-0.0052,-0.4337,10.0963,-0.0133,-0.014,-0.0272
22.38,0.2611,-0.52,9.7266,0.0117,-0.0361,0.0014
22.4,0.3448,-0.6741,9.9426,0.0222,-0.0339,-0.0083
22.42,0.4635,-0.5729,9.566,0.098,0.0447,-0.0453
22.44,0.3081,-0.307,9.5015,0.1848,0.1358,-0.0292
22.46,0.5317,-0.4557,9.5519,0.1152,0.1557,0.0063
22.48,0.1823,-0.1167,9.3459,-0.0429,-0.0225,0.0806
22.5,0.0486,-0.3979,9.0774,-0.3501,-0.3125,0.1763
22.52,-0.117,-0.5174,8.88,-0.6477,-0.4011,0.2226
22.54,-0.4663,-0.9132,9.7225,-0.7591,-0.1068,0.2361
22.56,-0.2584,-0.8487,11.4494,-0.4823,0.3255,0.1256
22.58,0.3036,-0.7506,12.6438,-0.0062,0.536,0.0071
22.6,0.8626,-0.9184,11.2817,0.4823,0.3321,-0.1308
22.62,1.17,-0.4861,9.5841,0.7142,-0.1478,-0.2235
22.64,0.6628,-0.2896,9.0871,0.6131,-0.4021,-0.2291
22.66,0.3462,-0.0531,9.2095,0.3292,-0.2687,-0.1602
22.68,0.2535,-0.3423,9.116,-0.0112,0.0021,-0.0768
22.7,0.4056,0.0475,9.3143,-0.1896,0.157,-0.0317
22.72,0.1198,-0.297,9.6095,-0.2166,0.1287,0.0174
22.74,0.2289,-0.2811,9.7174,-0.1283,0.0336,0.0241
22.76,0.0504,-0.2335,9.9816,-0.0658,-0.0411,0.0455
22.78,0.0849,-0.226,9.9,-0.0372,-0.0384,0.022
22.8,0.1999,0.0285,9.908,-0.0187,-0.0109,0.0039
22.82,0.2224,-0.2658,9.91,0.0078,-0.0014,0.0187
22.84,0.404,0.1215,9.7027,-0.0396,-0.0045,0.0188
22.86,0.2123,-0.2816,10.0122,0.0277,-0.0351,0.031
22.88,0.387,-0.1919,9.9182,0.0604,-0.0166,0.0443
22.9,0.3696,-0.1174,9.699,0.169,0.0603,0.0343
22.92,0.5339,-0.2522,9.4803,0.1621,0.138,0.0189
22.94,0.1975,-0.3277,9.1225,0.1299,0.0924,-0.0284
22.96,0.2209,-0.2646,9.0063,-0.115,-0.1208,-0.131
22.98,0.496,-0.3152,9.0565,-0.4545,-0.3529,-0.1898
23.0,-0.2972,-0.2969,9.1038,-0.7227,-0.3551,-0.2281
23.02,-0.4776,0.0975,10.0044,-0.6816,0.0243,-0.2025
23.04,-0.0955,0.4692,11.9012,-0.3424,0.4352,-0.0876
23.06,0.7808,0.5476,12.9564,0.1519,0.5177,0.0442
23.08,1.2675,0.372,10.5609,0.57,0.1791,0.1751
23.1,1.1702,0.2404,9.1559,0.6987,-0.2416,0.2133
23.12,0.786,-0.1781,8.9323,0.5517,-0.3697,0.2169
23.14,0.5358,-0.3604,9.0962,0.2019,-0.1953,0.1337
23.16,0.4193,-0.083,9.2743,-0.0868,0.0536,0.0598
23.18,0.374,-0.3264,9.4196,-0.1695,0.1453,0.0049
23.2,-0.0866,-0.3129,9.6062,-0.1713,0.0553,-0.008
23.22,0.0567,-0.4087,9.7781,-0.1218,-0.0114,-0.0372
23.24,0.3807,-0.3256,9.9192,-0.0261,-0.0483,-0.0194
23.26,0.4322,-0.0473,10.0241,-0.0168,-0.0364,0.0005
23.28,0.5306,-0.0942,9.8746,-0.0031,-0.0203,-0.0021
23.3,0.4155,-0.3633,9.8034,-0.0148,0.0227,0.0034
23.32,0.4927,-0.3918,9.7914,-0.0132,0.0064,0.0019
23.34,0.2791,-0.1542,9.6741,-0.0336,-0.0007,0.0007
23.36,0.1946,-0.2211,9.8777,-0.0138,-0.0104,-0.0108
23.38,0.4348,-0.1426,9.8843,0.0435,-0.039,-0.0262
23.4,0.5303,-0.1849,9.5012,0.1292,0.023,-0.0212
23.42,0.3046,-0.2781,9.5974,0.2451,0.1436,-0.0315
23.44,-0.0369,-0.1594,9.258,0.1971,0.2086,-0.0215
23.46,0.5921,-0.0164,9.2962,0.0075,0.0339,0.0656
23.48,0.1246,-0.0689,8.8903,-0.3708,-0.3173,0.1835
23.5,-0.2733,-0.5276,8.8695,-0.7309,-0.4954,0.2585
23.52,-0.8677,-0.7367,9.2185,-0.9167,-0.2421,0.2881
23.54,-0.9193,-0.9557,11.5826,-0.7056,0.3057,0.1704
23.56,0.0052,-1.2831,12.9196,-0.1215,0.6405,0.04
23.58,1.1617,-1.1732,12.0781,0.4975,0.458,-0.1424
23.6,1.5406,-0.6048,9.9741,0.8456,-0.0863,-0.2389
23.62,0.703,-0.3274,9.1755,0.8478,-0.4739,-0.2823
23.64,0.4443,-0.377,8.8513,0.4635,-0.3735,-0.1969
23.66,0.0341,-0.3497,8.9452,0.0618,-0.0758,-0.1184
23.68,0.3793,-0.1883,9.3315,-0.188,0.1293,-0.0319
23.7,0.2259,-0.4423,9.4233,-0.2359,0.1394,0.024
23.72,-0.0374,-0.5537,9.5348,-0.1858,0.0768,0.0518
23.74,0.2319,-0.4436,10.208,-0.115,-0.0078,0.0474
23.76,-0.0776,-0.3983,10.0014,0.0096,-0.0591,0.0179
23.78,0.1918,-0.5622,9.9012,-0.008,-0.0326,-0.0022
23.8,0.5513,-0.5181,9.7286,0.0344,-0.0107,-0.0007
23.82,0.0781,-0.6427,9.7257,0.0006,-0.0069,-0.011
23.84,0.2981,-0.4318,9.7727,-0.0381,-0.0297,-0.0109
23.86,0.3685,-0.442,9.724,-0.05,-0.0076,-0.001
23.88,0.4539,-0.412,9.7839,-0.0175,-0.012,0.0375
23.9,0.2806,-0.3869,10.0351,0.0579,-0.0325,0.0161
23.92,0.2248,-0.385,9.9318,0.1058,0.0145,0.0409
23.94,0.5042,-0.5286,9.6307,0.1904,0.1148,0.0293
23.96,0.1874,-0.5387,9.484,0.2299,0.1478,0.0002
23.98,0.1567,-0.5843,9.2282,0.0136,0.059,-0.0767
24.0,0.2144,-0.4597,9.0933,-0.2528,-0.2592,-0.1715
24.02,-0.0511,-0.0217,8.7979,-0.5859,-0.4157,-0.2489
24.04,-0.8507,-0.0423,9.1046,-0.8124,-0.273,-0.2334
24.06,-0.8201,0.3321,11.0753,-0.641,0.1771,-0.1619
24.08,-0.1517,0.1766,13.0206,-0.1982,0.5934,-0.0526
24.1,0.8656,0.3514,11.9342,0.367,0.4434,0.1143
24.12,1.4188,0.04,10.0565,0.7311,0.0101,0.2096
24.14,1.0402,-0.1614,8.8917,0.7875,-0.4236,0.2466
24.16,0.5872,-0.5165,8.8919,0.4838,-0.3885,0.2056
24.18,0.4479,-0.2256,9.086,0.131,-0.0898,0.0972
24.2,0.3861,-0.4009,9.162,-0.1509,0.1329,0.0399
24.22,0.5449,-0.2523,9.5134,-0.2179,0.1442,-0.0055
24.24,0.2267,-0.1275,9.4667,-0.1636,0.089,-0.0389
24.26,0.2671,-0.166,9.9666,-0.0765,-0.0252,-0.0514
24.28,0.2601,-0.2274,10.0005,-0.0219,-0.0568,-0.0151
24.3,0.4898,0.0912,9.9081,0.0187,-0.0094,-0.0094
24.32,0.6373,-0.1209,9.7351,-0.0031,-0.0121,-0.004
24.34,0.4022,-0.1916,9.8134,-0.0161,-0.0016,0.0119
24.36,0.4252,-0.1237,9.9234,0.0093,0.0104,-0.0113
24.38,0.5664,-0.1106,9.8363,-0.0319,-0.0238,-0.0048
24.4,0.5404,-0.1521,9.8414,-0.0051,-0.03,-0.0169
24.42,0.5095,-0.08,9.7895,0.0968,-0.0077,-0.0464
24.44,0.5651,-0.0262,9.5374,0.138,0.1014,-0.0425
24.46,0.8002,0.0114,9.4372,0.185,0.1467,0.0111
24.48,0.3698,0.122,9.215,0.1016,0.0584,0.0549
24.5,0.3728,0.2044,9.1542,-0.1762,-0.1904,0.1262
24.52,0.2429,-0.1741,9.1616,-0.497,-0.3925,0.1889
24.54,-0.3113,-0.1511,9.3454,-0.6997,-0.282,0.2116
24.56,-0.4985,-0.4918,10.8267,-0.614,0.139,0.1716
24.58,0.0514,-0.5902,11.9976,-0.2095,0.482,0.0637
24.6,1.1225,-0.361,11.9408,0.285,0.4534,-0.081
24.62,1.5476,-0.3794,10.2844,0.6734,0.0616,-0.1763
24.64,1.0702,-0.5259,9.3783,0.6748,-0.3112,-0.2373
24.66,0.6277,-0.1134,9.0017,0.4603,-0.3611,-0.1825
24.68,0.6045,-0.4302,9.1753,0.1047,-0.1153,-0.1164
24.7,0.3337,-0.1633,9.3713,-0.1442,0.0939,-0.0269
24.72,0.4806,-0.2645,9.3969,-0.2482,0.1496,0.0103
24.74,0.405,-0.1382,9.7097,-0.1382,0.075,0.0282
24.76,0.1861,-0.0944,9.7979,-0.1119,-0.0167,0.0292
24.78,0.1375,-0.2161,9.8923,-0.0313,-0.0243,0.023
24.8,0.5126,-0.3915,9.791,0.0205,-0.0044,0.0013
24.82,0.2346,-0.4011,9.8054,-0.0145,-0.0019,0.0055
24.84,0.323,-0.1064,9.8326,-0.0109,0.0102,0.0006
24.86,0.1612,-0.1068,9.8063,-0.0057,0.0253,0.0209
24.88,0.4159,-0.2516,9.7743,-0.0279,0.01,0.0094
24.9,0.4298,-0.5268,9.9122,-0.0692,-0.0088,0.0077
24.92,0.2959,-0.2413,9.6926,-0.004,-0.0248,-0.0111
24.94,0.3144,-0.3052,10.0202,0.0266,-0.0035,0.0164
24.96,0.504,-0.4365,10.0414,0.0354,-0.0301,0.0242
24.98,0.1572,-0.6969,9.4837,0.1213,0.0377,0.0419
25.0,0.592,-0.6341,9.6098,0.1606,0.123,0.0223
25.02,0.3776,-0.7609,9.1412,0.1657,0.1314,-0.0107
25.04,0.2851,-0.7328,9.183,-0.0323,-0.0671,-0.092
25.06,0.0907,-0.6328,9.1397,-0.4122,-0.3355,-0.2073
25.08,-0.4003,-0.3422,8.9606,-0.679,-0.367,-0.2198
25.1,-0.7412,-0.1765,9.9501,-0.7265,-0.0523,-0.2203
25.12,-0.612,0.1068,11.5803,-0.4648,0.3781,-0.1226
25.14,0.2176,-0.3554,12.6984,0.0741,0.5347,0.0027
25.16,1.1318,-0.0652,11.46,0.5651,0.2773,0.1553
25.18,1.2636,-0.4022,9.5618,0.7445,-0.2034,0.2214
25.2,0.5675,-0.7752,8.9033,0.6044,-0.4054,0.2204
25.22,0.4357,-0.5812,8.9535,0.2689,-0.2311,0.1697
25.24,0.0226,-0.5814,9.3138,-0.0328,-0.0008,0.0762
25.26,0.2949,-0.5414,9.4459,-0.1593,0.1613,0.0248
25.28,0.107,-0.4781,9.4511,-0.1899,0.1133,-0.0017
25.3,0.1334,-0.4818,10.172,-0.1494,0.0346,-0.0314
25.32,-0.0423,-0.2442,9.8828,-0.0803,-0.0172,-0.0264
25.34,0.3221,-0.2703,9.9536,0.0307,-0.0172,0.0035
25.36,0.2324,-0.2621,9.7545,-0.009,-0.0215,0.0028
25.38,0.4072,-0.4553,9.8915,0.0139,-0.0126,-0.0058
25.4,0.3147,-0.2546,9.9161,-0.0475,0.0142,-0.007
25.42,0.1792,-0.1608,9.8331,-0.0282,-0.0094,-0.0091
25.44,0.6366,-0.5397,9.8957,0.0162,-0.0179,-0.012
25.46,0.2534,-0.7131,9.9371,-0.0088,-0.0396,-0.0304
25.48,0.1546,-0.2691,9.8037,0.1035,-0.0003,-0.0246
25.5,0.669,-0.1294,9.4784,0.1599,0.0786,-0.0339
25.52,0.3038,0.1444,9.5903,0.189,0.1528,-0.0149
25.54,0.3624,0.0317,9.2635,0.074,0.096,0.045
25.56,0.4519,-0.1103,9.1914,-0.1468,-0.1272,0.1168
25.58,0.3224,-0.5877,9.1337,-0.4658,-0.3395,0.2002
25.6,-0.4422,-0.2094,9.1903,-0.6674,-0.2933,0.2175
25.62,-0.421,-0.3448,10.4461,-0.5856,0.0909,0.1644
25.64,0.2644,-0.7172,12.1967,-0.2467,0.4372,0.0746
25.66,0.4987,-0.3695,11.7111,0.244,0.4399,-0.0661
25.68,1.2894,-0.3293,10.1302,0.5851,0.0965,-0.1597
25.7,1.2909,-0.2455,9.1873,0.6494,-0.3009,-0.2137
25.72,0.7723,-0.1096,9.1883,0.4562,-0.3381,-0.2056
25.74,0.1789,0.0461,9.1753,0.1324,-0.1559,-0.1268
25.76,0.2913,-0.1822,9.322,-0.0883,0.0638,-0.0471
25.78,0.3296,-0.0949,9.6,-0.167,0.1153,0.0011
25.8,0.2273,0.2187,9.5363,-0.1351,0.1001,0.0205
25.82,0.2606,-0.3592,9.7509,-0.0883,-0.0075,0.0198
25.84,0.4796,-0.1457,9.8083,-0.0326,-0.0347,0.0046
25.86,0.356,-0.3083,9.9694,0.0145,-0.022,0.0378
25.88,0.551,-0.3134,9.8611,0.0045,-0.0317,0.0268
25.9,0.2992,-0.3642,9.8071,-0.023,0.0049,0.0172
25.92,0.3341,0.1123,9.8419,0.0104,-0.0008,0.0028
25.94,0.7688,-0.0611,9.7682,-0.0037,0.0116,-0.0055
25.96,0.4959,-0.1285,9.8011,-0.0384,-0.0038,0.0093
25.98,0.5385,-0.4281,9.9188,-0.0282,-0.0127,0.0128
26.0,0.3891,0.0995,9.8903,-0.0195,-0.0666,0.0165
26.02,0.4961,-0.229,9.8319,0.0619,-0.0211,0.011
26.04,0.2695,-0.125,9.6779,0.1272,0.0309,0.0501
26.06,0.4363,-0.2128,9.5597,0.2091,0.1237,0.03
26.08,0.4145,-0.0842,9.2323,0.1583,0.1293,-0.0192
26.1,0.135,-0.3262,9.1692,-0.0333,-0.0321,-0.08
26.12,0.3179,-0.2623,8.9421,-0.4199,-0.3285,-0.1897
26.14,-0.3319,-0.2234,8.9431,-0.72,-0.411,-0.2577
26.16,-0.3823,-0.0992,9.6469,-0.8019,-0.1584,-0.2232
26.18,-0.3528,-0.0995,12.033,-0.5399,0.3549,-0.1466
26.2,0.452,0.208,12.8866,-0.0286,0.61,-0.0202
26.22,1.1963,0.0343,11.6305,0.5201,0.3292,0.157
26.24,1.1797,0.0274,9.5975,0.7975,-0.1558,0.2511
26.26,0.944,-0.2828,8.9485,0.7123,-0.4389,0.2633
26.28,0.204,-0.4132,8.8135,0.3328,-0.3175,0.188
26.3,0.4459,-0.4841,9.1462,-0.0071,0.0029,0.0877
26.32,0.0694,-0.6767,9.2395,-0.1735,0.1571,0.0296
26.34,0.1327,-0.7682,9.6052,-0.1989,0.1085,-0.0294
26.36,0.0778,-0.5637,9.8208,-0.1444,0.0784,-0.0481
26.38,0.1447,-0.4343,10.0284,-0.0601,-0.0569,-0.0343
26.4,0.4332,-0.6776,9.9647,0.0112,-0.0494,-0.0132
26.42,0.3486,-0.4528,9.7401,-0.0082,-0.0342,0.0213
26.44,0.5173,-0.4367,9.9742,0.0204,0.0208,-0.0174
26.46,0.1633,-0.5188,9.9757,-0.0241,0.0093,-0.0002
26.48,0.2318,-0.3025,9.5457,-0.0151,-0.0017,-0.0075
26.5,0.3813,-0.5979,9.8952,0.0176,-0.0071,0.0057
26.52,0.1444,-0.7089,9.6579,-0.0175,0.0071,0.0001
26.54,0.324,-0.5786,9.9528,-0.0324,-0.0333,-0.0256
26.56,0.4448,-0.2744,9.952,-0.0011,-0.0319,-0.028
26.58,0.1875,-0.2971,9.9849,0.0495,0.0187,-0.0195
26.6,0.0509,-0.6171,9.804,0.1158,0.0797,-0.0268
26.62,0.1064,-0.4969,9.3167,0.1578,0.1143,-0.0115
26.64,0.1008,-0.2344,9.3911,0.1027,0.0954,0.0201
26.66,0.1315,-0.3142,9.3308,-0.1226,-0.0944,0.116
26.68,0.1458,-0.3441,8.971,-0.4151,-0.3173,0.2125
26.7,-0.2072,-0.3551,9.1201,-0.6966,-0.3416,0.2165
26.72,-0.7724,-0.6125,9.993,-0.6423,-0.0283,0.1897
26.74,-0.4892,-0.9112,11.7227,-0.3297,0.4242,0.1004
26.76,0.5836,-0.8666,12.2022,0.1246,0.5033,-0.0216
26.78,1.2871,-0.7119,11.0503,0.5641,0.1804,-0.1411
26.8,1.0854,-0.5156,9.3735,0.6792,-0.2571,-0.2283
26.82,0.5402,-0.3804,9.1819,0.5285,-0.3849,-0.2032
26.84,0.3282,-0.2083,9.117,0.2184,-0.1891,-0.1468
26.86,0.1882,-0.2377,9.5034,-0.0381,0.0568,-0.0709
26.88,0.0725,-0.3198,9.4241,-0.2108,0.1659,0.0045
26.9,0.3525,-0.2142,9.534,-0.2001,0.1075,0.01
26.92,0.2585,-0.3929,9.739,-0.1516,0.0169,0.0357
26.94,0.4913,-0.3066,10.001,-0.0365,-0.0424,0.0273
26.96,0.1726,-0.5845,9.8444,-0.0139,-0.0196,0.0096
26.98,0.4083,-0.2315,9.7323,0.0186,0.0156,0.0106
27.0,0.446,0.0377,9.7689,0.015,-0.0194,0.0045
27.02,0.1122,-0.0734,9.8039,-0.025,0.0198,0.0015
27.04,0.3692,-0.0837,9.7438,0.0191,0.0335,0.0118
27.06,0.3741,-0.0538,9.6886,-0.0011,-0.0127,0.0057
27.08,0.121,-0.3041,9.863,-0.0263,0.0177,0.0126
27.1,0.6384,-0.1098,9.8322,-0.021,0.0168,0.0022
27.12,0.4923,-0.1771,9.8089,-0.0068,0.0299,0.0168
27.14,0.4299,-0.0953,9.8843,-0.0053,-0.0142,0.0155
27.16,0.5458,-0.2384,9.9073,0.0124,-0.0373,0.0073
27.18,0.3653,-0.2149,9.946,0.0809,-0.0126,0.0146
27.2,0.5762,-0.2907,9.674,0.1625,0.0712,0.0181
27.22,0.7317,-0.1415,9.5292,0.1415,0.1079,0.0038
27.24,0.649,-0.1393,9.3412,0.0426,0.0748,-0.0373
27.26,0.124,0.0447,9.045,-0.1639,-0.1671,-0.1376
27.28,0.4117,-0.326,8.7459,-0.4622,-0.3544,-0.1806
27.3,-0.3587,0.0137,9.2852,-0.6784,-0.286,-0.2183
27.32,-0.22,0.0911,10.6655,-0.6068,0.1104,-0.187
27.34,-0.1084,0.1944,12.4883,-0.2649,0.4447,-0.0498
27.36,0.7164,0.3014,11.7603,0.2462,0.4402,0.0614
27.38,1.2754,0.3092,10.5726,0.5962,0.0706,0.1666
27.4,1.1696,0.0779,9.1066,0.6725,-0.286,0.2086
27.42,0.6799,-0.4766,8.9679,0.4509,-0.361,0.1869
27.44,0.385,-0.3262,9.3116,0.1466,-0.1568,0.1098
27.46,0.0859,-0.2607,9.0558,-0.0895,0.079,0.0227
27.48,0.2683,-0.2613,9.4713,-0.1812,0.1176,0.0002
27.5,0.1431,-0.601,9.7551,-0.1558,0.0593,-0.0218
27.52,0.2254,-0.3751,9.7566,-0.0664,-0.0268,-0.0365
27.54,0.3857,-0.2067,10.0817,0.0042,-0.0558,-0.0326
27.56,0.5764,-0.056,9.9563,0.0046,-0.0252,-0.008
27.58,0.4238,-0.3025,9.9123,-0.0058,0.0047,0.0074
27.6,0.5727,-0.1277,9.5301,-0.0209,0.0129,-0.003
27.62,0.5255,-0.4735,9.8049,0.0069,0.024,0.0107
27.64,0.2854,-0.4568,9.8262,-0.0114,-0.0091,0.0163
27.66,0.3145,-0.4373,9.7389,0.0011,-0.0064,-0.0033
27.68,0.2902,-0.2963,9.8131,-0.0226,0.0096,0.0121
27.7,0.4204,-0.3262,9.6747,-0.0036,-0.0147,-0.0046
27.72,0.4283,-0.3821,9.8091,-0.0281,0.0174,0.0105
27.74,0.2291,-0.231,9.7937,-0.0447,-0.0197,0.0176
27.76,0.3962,-0.417,9.8645,0.0396,-0.0526,-0.0312
27.78,0.4508,-0.3119,9.8504,0.1457,-0.0031,-0.0368
27.8,0.3073,-0.2445,9.562,0.2273,0.1494,-0.0194
27.82,0.4185,-0.3274,9.382,0.2193,0.1541,0.0206
27.84,0.1965,0.0165,9.191,0.0173,0.0221,0.0944
27.86,0.2789,-0.3126,8.9788,-0.3841,-0.3334,0.2131
27.88,-0.1075,-0.4378,8.8164,-0.7807,-0.4951,0.2666
27.9,-0.7277,-0.8142,9.3557,-0.9283,-0.2498,0.2644
27.92,-0.5139,-1.1162,11.1243,-0.6678,0.323,0.1947
27.94,0.5262,-0.9032,13.2666,-0.1231,0.6727,0.0223
27.96,1.043,-1.0172,11.8882,0.512,0.4681,-0.157
27.98,1.3184,-0.6114,9.7484,0.8949,-0.0856,-0.2642
28.0,1.0808,-0.8158,8.6408,0.8284,-0.4737,-0.272
28.02,0.5044,-0.5422,8.9024,0.4841,-0.4292,-0.2119
28.04,0.3277,-0.3936,8.8419,0.0452,-0.0588,-0.127
28.06,0.2217,-0.3941,9.1825,-0.1909,0.156,-0.0367
28.08,-0.0214,-0.2497,9.4464,-0.2407,0.1717,0.0295
28.1,0.0792,-0.4147,9.4835,-0.1659,0.0756,0.0444
28.12,0.2564,-0.4989,9.9572,-0.0857,-0.0307,0.0146
28.14,0.1636,-0.5668,10.19,-0.0582,-0.0302,-0.0008
28.16,0.4435,-0.4764,9.8897,0.0316,0.0032,-0.0033
28.18,0.3561,-0.532,9.8418,0.0083,-0.0082,-0.0291
28.2,0.3569,-0.2777,10.0145,-0.015,0.0107,-0.0058
28.22,0.2525,-0.1988,9.711,-0.0092,-0.0089,-0.0008
28.24,0.3856,-0.4216,9.8498,-0.0309,0.0208,0.0032
28.26,0.335,-0.4416,9.8568,-0.0611,-0.0313,0.011
28.28,0.0856,-0.3139,10.1018,0.031,-0.0371,0.0315
28.3,0.4912,-0.413,9.6918,0.0601,-0.0326,0.0296
28.32,0.5971,-0.3228,9.4416,0.1656,0.0356,0.0302
28.34,0.4936,-0.5295,9.2752,0.2155,0.1401,0.0127
28.36,0.5328,-0.3659,9.1755,0.157,0.1477,-0.0328
28.38,0.1606,-0.1796,8.9128,-0.073,-0.0777,-0.0988
28.4,0.2705,-0.2627,8.9133,-0.4413,-0.3693,-0.2013
28.42,-0.3253,0.1415,9.1246,-0.7555,-0.3932,-0.2432
28.44,-0.5608,-0.0073,9.9483,-0.7936,-0.0829,-0.2184
28.46,-0.2359,0.2812,12.1555,-0.4469,0.3914,-0.108
28.48,0.8018,0.6104,13.4277,0.0987,0.5791,0.031
28.5,1.3997,0.0856,11.195,0.6028,0.2503,0.1926
28.52,1.3775,-0.1025,9.2023,0.7843,-0.2371,0.2286
28.54,0.9843,0.0246,8.8485,0.6573,-0.4071,0.2467
28.56,0.4378,-0.1495,9.0835,0.3028,-0.2855,0.1699
28.58,0.4277,-0.147,8.9423,-0.0226,0.0385,0.0791
28.6,0.345,-0.0035,9.1428,-0.1956,0.1658,0.0195
28.62,0.1873,-0.0995,9.5246,-0.2247,0.1202,-0.0393
28.64,0.2208,-0.2184,9.8287,-0.137,0.0333,-0.0561
28.66,0.4863,-0.1217,9.988,-0.0648,-0.0132,-0.0323
28.68,0.5214,-0.2258,9.927,-0.016,-0.0189,-0.0196
28.7,0.2818,-0.1052,9.6651,-0.0177,0.0044,-0.0051
28.72,0.6016,-0.1538,9.7891,0.0111,0.005,-0.0019
28.74,0.2955,-0.0732,9.9519,-0.0211,-0.005,0.0023
28.76,0.2881,-0.2604,9.7263,0.0085,-0.0192,-0.002
28.78,0.4099,0.0778,9.9641,0.0548,-0.0224,-0.0281
28.8,0.7308,-0.1373,9.8243,0.0857,0.015,-0.0124
28.82,0.5318,-0.0053,9.6735,0.1788,0.1205,-0.0353
28.84,0.5168,-0.1195,9.423,0.1534,0.1378,0.011
28.86,0.6159,-0.0668,9.3192,-0.0025,0.0323,0.0795
28.88,0.2332,-0.018,9.2665,-0.296,-0.2314,0.1584
28.9,-0.0654,0.112,8.9906,-0.5892,-0.3589,0.1973
28.92,-0.4106,-0.1901,9.3773,-0.6778,-0.1567,0.1994
28.94,-0.4019,-0.6694,11.0791,-0.487,0.2271,0.125
28.96,0.5742,-0.8536,12.3072,-0.1077,0.4682,0.0191
28.98,1.1095,-0.6903,11.1964,0.4093,0.3279,-0.1127
29.0,1.2709,-0.3885,9.8631,0.6612,-0.104,-0.1969
29.02,0.7909,-0.4491,8.8913,0.6041,-0.3584,-0.2137
29.04,0.4286,-0.1942,9.0587,0.3225,-0.2784,-0.1699
29.06,0.2484,-0.0177,9.3458,0.0035,-0.0549,-0.0767
29.08,0.3182,-0.2504,9.5432,-0.1743,0.1209,-0.0015
29.1,0.2779,-0.5187,9.667,-0.2031,0.1325,0.0214
29.12,0.3014,-0.3248,9.7678,-0.1453,0.0346,0.0245
29.14,0.209,-0.4382,9.8832,-0.0872,-0.0205,0.0222
29.16,0.251,-0.422,9.8358,-0.0243,-0.0163,-0.0125
29.18,0.1602,-0.3019,9.8585,0.0055,0.0082,0.0056
29.2,0.3854,-0.5605,9.7511,0.0087,0.0446,0.0152
29.22,0.4707,-0.4369,9.6345,-0.008,0.0269,-0.0044
29.24,0.3226,-0.4511,9.819,-0.0066,-0.0336,0.0111
29.26,0.2408,-0.6214,9.9054,0.0299,-0.0426,0.0373
29.28,0.3586,-0.5705,9.7857,0.0692,-0.0292,0.0294
29.3,0.3531,-0.3802,9.4614,0.1578,0.084,0.0607
29.32,0.5782,-0.4796,9.4777,0.2357,0.1558,0.0098
29.34,0.5816,-0.7959,8.9338,0.1175,0.106,-0.0545
29.36,0.1444,-0.8811,8.9708,-0.1557,-0.1503,-0.1441
29.38,0.1002,-0.7678,8.7698,-0.5423,-0.3951,-0.2344
29.4,-0.4928,-0.0287,8.9786,-0.8006,-0.3619,-0.2673
29.42,-0.8586,-0.1542,10.6416,-0.7609,0.0734,-0.2003
29.44,-0.196,-0.2784,12.5589,-0.3438,0.4801,-0.1019
29.46,0.4804,0.2318,12.4122,0.2145,0.574,0.0561
29.48,1.5949,-0.0958,10.8975,0.7198,0.1467,0.1846
29.5,0.9864,-0.6592,9.2205,0.8199,-0.3253,0.2607
29.52,0.4866,-0.4941,8.6426,0.5925,-0.4233,0.2319
29.54,0.459,-0.7625,8.9989,0.2437,-0.2008,0.1638
29.56,0.3645,-0.7519,9.23,-0.0709,0.0888,0.0724
29.58,0.3199,-0.656,9.3993,-0.2211,0.1915,-0.0007
29.6,0.3733,-0.4734,9.553,-0.1828,0.1088,-0.0281
29.62,0.27,-0.7675,9.9184,-0.1166,0.0159,-0.0352
29.64,0.2158,-0.4908,10.068,-0.0481,-0.0192,-0.0247
29.66,0.4284,-0.3835,10.0186,-0.0018,-0.0196,-0.0254
29.68,0.5819,-0.101,9.975,0.0359,0.007,-0.0025
29.7,0.0988,-0.3455,9.7717,-0.0095,0.0078,-0.013
29.72,0.3727,-0.6304,9.8399,0.0324,0.0227,-0.0067
29.74,0.4176,-0.6062,9.7763,-0.0151,-0.0024,-0.0103
29.76,0.3472,-0.3368,9.7977,-0.0165,-0.0002,-0.0132
29.78,0.1596,-0.1303,9.8422,0.0014,-0.0249,-0.0071
29.8,0.249,-0.2996,9.8963,0.0263,-0.0085,-0.032
29.82,0.598,-0.3917,9.902,0.1164,-0.0183,-0.0036
29.84,0.5175,-0.2429,9.3693,0.1501,0.0536,-0.0303
29.86,0.5513,0.0653,9.5162,0.1892,0.1403,0.0079
29.88,0.3695,0.1668,9.3756,0.078,0.083,0.0369
29.9,0.393,0.1494,9.0987,-0.1672,-0.141,0.1028
29.92,0.4731,0.2363,8.883,-0.4475,-0.3695,0.1821
29.94,-0.3811,-0.3349,9.1084,-0.699,-0.3091,0.2197
29.96,-0.4866,-0.3919,10.593,-0.5996,0.0941,0.1831
29.98,0.1491,-0.5671,12.2293,-0.2633,0.4441,0.0813
30.0,0.5209,-0.6657,11.9569,0.2271,0.4591,-0.076
30.02,1.2466,-0.3988,10.444,0.6044,0.106,-0.1899
30.04,1.0308,-0.2007,9.4129,0.6516,-0.2726,-0.2178
30.06,0.6189,-0.1834,9.2193,0.4674,-0.3669,-0.2086
30.08,0.199,0.1974,9.1312,0.1576,-0.1605,-0.1069
30.1,0.2727,0.2054,9.1542,-0.0915,0.0829,-0.0488
30.12,0.2584,-0.1022,9.3443,-0.1854,0.1579,-0.0148
30.14,0.401,-0.19,9.6281,-0.1517,0.0885,0.025
30.16,0.6646,0.0673,9.5982,-0.0958,0.0148,0.0569
30.18,0.5533,-0.1525,9.8828,-0.0336,-0.0453,0.0101
30.2,0.5619,-0.1559,9.9028,0.0041,-0.0283,-0.0051
30.22,0.642,-0.0405,9.844,-0.006,-0.0242,0.0048
30.24,0.3069,-0.1416,9.8035,-0.0019,0.0148,-0.0104
30.26,0.6528,0.0064,9.9364,0.0188,-0.0102,-0.012
30.28,0.6095,-0.1461,9.8985,-0.0159,0.0094,-0.0073
30.3,0.4484,-0.2164,9.5435,-0.0289,-0.0004,0.0052
30.32,0.6133,-0.3105,9.8036,0.0025,-0.0149,0.0121
30.34,0.3641,-0.1207,9.6368,-0.004,-0.0633,0.0074
30.36,0.4453,-0.396,9.9867,-0.0016,-0.0395,0.018
30.38,0.5152,-0.2848,9.904,0.1156,0.0152,0.0184
30.4,0.5016,-0.3445,9.5721,0.1684,0.0924,0.0013
30.42,0.6251,-0.5957,9.5458,0.1871,0.1399,-0.0061
30.44,0.3386,-0.2522,9.1787,0.0638,0.0811,-0.0598
30.46,0.2065,-0.5654,9.2073,-0.2311,-0.1712,-0.169
30.48,0.1072,-0.4551,9.0224,-0.5372,-0.3861,-0.2037
30.5,-0.4485,-0.3394,9.1345,-0.7193,-0.2551,-0.2266
30.52,-0.7612,-0.1442,10.796,-0.5815,0.1667,-0.1678
30.54,-0.1937,-0.0691,12.268,-0.1692,0.5034,-0.049
30.56,0.5841,-0.1073,12.1055,0.3165,0.4212,0.0855
30.58,1.5863,-0.1625,10.5576,0.6647,0.0143,0.2033
30.6,0.96,-0.4817,9.0707,0.6884,-0.3442,0.2321
30.62,0.5736,-0.5861,9.0864,0.4216,-0.3438,0.2073
30.64,0.5422,-0.6948,9.2307,0.1376,-0.1232,0.1287
30.66,0.1294,-0.75,9.1653,-0.1044,0.0989,0.0506
30.68,0.0842,-0.7157,9.4548,-0.1646,0.1437,-0.0077
30.7,0.2442,-0.6917,9.793,-0.1618,0.0866,-0.0283
30.72,0.2125,-0.5091,9.6779,-0.0813,-0.0285,-0.035
30.74,0.2144,-0.7618,9.9146,-0.0367,-0.0397,-0.0274
30.76,0.3802,-0.4654,9.8935,0.001,-0.0049,-0.0135
30.78,0.2866,-0.5434,9.7043,0.0082,-0.0083,0.0203
30.8,0.3034,-0.5042,9.7126,0.0048,0.0107,-0.0024
30.82,0.4794,-0.4255,9.8523,0.0038,-0.0004,-0.0149
30.84,0.0688,-0.4938,9.7189,-0.0107,-0.0124,0.0087
30.86,0.3188,-0.4273,10.0706,0.0046,-0.0176,0.0044
30.88,0.3642,-0.4901,9.7844,0.0182,-0.0317,-0.0033
30.9,0.4609,-0.195,9.9279,0.0444,-0.01,-0.0249
30.92,0.6034,-0.5028,9.911,0.1048,0.0244,-0.0548
30.94,0.6122,-0.3355,9.7027,0.1608,0.1359,-0.0147
30.96,0.3532,-0.106,9.2876,0.1711,0.1245,0.017
30.98,0.3474,-0.4047,9.0627,-0.0468,-0.0081,0.0805
31.0,0.2796,-0.3032,9.1559,-0.3614,-0.2831,0.1599
31.02,-0.2489,-0.153,8.9897,-0.5948,-0.3796,0.21
31.04,-0.5131,-0.4364,9.4936,-0.701,-0.1148,0.1898
31.06,-0.5,-0.8182,11.6769,-0.4553,0.3043,0.1246
31.08,0.3785,-0.5774,12.1338,0.0181,0.5216,0.0137
31.1,1.3207,-0.6454,11.4027,0.469,0.2926,-0.1299
31.12,1.3604,-0.5555,9.7689,0.7055,-0.1573,-0.2114
31.14,0.981,-0.416,9.2149,0.5841,-0.4014,-0.2199
31.16,0.4528,-0.1488,9.2318,0.3182,-0.2726,-0.1613
31.18,0.2767,-0.3808,9.363,-0.0006,-0.0087,-0.0906
31.2,0.6559,0.0042,9.6282,-0.1438,0.1244,-0.0246
31.22,0.371,-0.3977,9.6565,-0.2026,0.0962,0.0172
31.24,0.2255,-0.3329,9.8392,-0.1193,0.032,0.0256
31.26,0.3587,-0.1616,10.0489,-0.0414,-0.0469,0.0382
31.28,0.4219,-0.1871,9.9432,0.0002,-0.0173,0.0159
31.3,0.5537,-0.1177,9.8079,-0.001,-0.016,0.0079
31.32,0.6265,-0.4551,9.829,0.0152,-0.0213,0.0083
31.34,0.607,-0.2611,9.7525,-0.0046,0.0083,0.0161
31.36,0.3841,-0.1568,9.7147,-0.0049,-0.0061,-0.0035
31.38,0.3416,-0.2487,9.7141,-0.017,0.0097,0.0154
31.4,0.4419,0.011,9.7149,0.0008,-0.0008,0.016
31.42,0.7616,0.0314,9.7657,-0.0306,-0.0001,0.0087
31.44,0.4424,-0.2545,9.6309,-0.0365,-0.0185,-0.0018
31.46,0.6008,-0.1776,9.9404,0.014,-0.0915,0.0161
31.48,0.7354,-0.2767,10.0326,0.0449,-0.0222,0.0291
31.5,0.7198,-0.2285,9.6358,0.1597,0.0296,0.0483
31.52,0.6871,-0.4178,9.3103,0.2164,0.1427,0.0145
31.54,0.4054,-0.3568,9.3901,0.163,0.1613,-0.0151
31.56,0.2535,-0.2775,8.9052,-0.068,-0.0393,-0.1068
31.58,0.5287,-0.2644,8.9976,-0.4057,-0.3505,-0.1855
31.6,-0.1681,-0.2073,8.8515,-0.7612,-0.4142,-0.2643
31.62,-0.721,0.3197,9.609,-0.8264,-0.0964,-0.2474
31.64,-0.6792,0.5648,11.8761,-0.534,0.3933,-0.1154
31.66,0.4411,0.2365,13.5369,0.0459,0.6141,-0.0001
31.68,1.4565,0.0298,11.5064,0.5955,0.337,0.1696
31.7,1.3729,-0.119,9.5539,0.7863,-0.1927,0.2421
31.72,0.8817,0.0377,8.8525,0.6796,-0.4527,0.256
31.74,0.4164,-0.356,9.055,0.3717,-0.3124,0.1957
31.76,0.461,0.0417,8.9515,0.001,0.0013,0.0969
31.78,0.3772,-0.3512,9.2543,-0.2141,0.1801,0.015
31.8,0.437,-0.4418,9.4004,-0.2363,0.1494,-0.0181
31.82,0.3214,-0.3977,9.827,-0.1384,0.0556,-0.0475
31.84,0.0176,-0.1625,9.9325,-0.0378,-0.0174,-0.0391
31.86,0.3835,-0.5474,10.1136,0.0098,-0.0217,-0.0235
31.88,0.6338,-0.3954,9.9443,-0.0044,-0.0133,-0.0322
31.9,0.0412,-0.543,9.5476,-0.0386,-0.0005,-0.0007
31.92,0.4647,-0.3515,9.7327,-0.0359,-0.0353,-0.0184
31.94,0.1932,-0.4443,9.7463,0.0308,-0.0274,-0.0188
31.96,0.2347,-0.096,9.702,0.0886,0.0106,-0.0366
31.98,0.5956,-0.1975,9.5404,0.1553,0.0481,-0.0204
32.0,0.4373,-0.3002,9.3062,0.2128,0.1563,-0.0034
32.02,0.3934,-0.3628,9.5104,0.1322,0.1177,0.0347
32.04,0.2673,-0.3839,9.3053,-0.0966,-0.0869,0.0873
32.06,0.0981,-0.2427,8.9729,-0.4617,-0.3624,0.1946
32.08,-0.0925,-0.5186,9.1656,-0.6955,-0.3752,0.2547
32.1,-0.4122,-0.6333,10.0036,-0.716,-0.0304,0.2035
32.12,-0.5659,-0.6299,11.6709,-0.4223,0.4214,0.0943
32.14,0.3816,-1.053,12.7174,0.1194,0.5273,-0.0248
32.16,0.7741,-0.9893,10.8809,0.6012,0.233,-0.1581
32.18,1.3443,-0.5291,9.4961,0.7493,-0.2315,-0.23
32.2,0.6713,-0.4958,8.8243,0.6336,-0.4085,-0.229
32.22,0.2543,-0.3229,9.0085,0.2447,-0.231,-0.1595
32.24,0.2942,-0.2088,9.227,-0.0621,0.0377,-0.0813
32.26,0.3215,-0.4669,9.3532,-0.2156,0.1638,0.0126
32.28,0.0667,-0.3533,9.571,-0.1899,0.1011,0.0242
32.3,0.282,-0.3324,9.7907,-0.155,0.009,0.0354
32.32,0.3602,-0.4101,9.8672,-0.0219,-0.0241,0.0507
32.34,0.2523,-0.492,10.0024,0.0255,-0.0173,0.002
32.36,0.2569,-0.6604,9.898,0.0051,-0.0229,0.0222
32.38,0.3775,-0.3301,9.841,0.0109,0.0007,0.0331
32.4,0.3013,-0.5676,9.9595,-0.0069,-0.0022,0.01
32.42,0.4184,-0.4688,9.8153,0.0073,-0.0081,0.0399
32.44,0.4012,-0.3336,9.9736,0.1,-0.0199,0.0334
32.46,0.5982,-0.4487,9.7263,0.1666,0.0638,0.0417
32.48,0.6069,-0.5484,9.4228,0.1982,0.125,0.0198
32.5,0.5567,-0.6791,9.2204,0.1097,0.1092,-0.0632
32.52,0.253,-0.5295,8.9864,-0.1056,-0.1225,-0.1198
32.54,0.2848,-0.3891,8.9858,-0.4238,-0.3732,-0.1798
32.56,-0.4156,-0.2069,9.1351,-0.6991,-0.334,-0.2222
32.58,-0.6818,0.1129,10.1063,-0.6803,0.0096,-0.2024
32.6,-0.0853,0.0785,12.4182,-0.3313,0.4152,-0.0957
32.62,0.7076,0.248,12.8774,0.1948,0.4701,0.0401
32.64,1.4914,0.106,10.4914,0.6024,0.1555,0.163
32.66,1.2341,-0.3277,9.3406,0.7429,-0.2555,0.23
32.68,0.7119,-0.1928,9.1089,0.5676,-0.3761,0.1889
32.7,0.4419,-0.5479,9.0217,0.1966,-0.2011,0.1529
32.72,0.3733,-0.3841,9.3156,-0.0522,0.0742,0.0458
32.74,0.3143,-0.5094,9.49,-0.1776,0.1504,0.0044
32.76,0.2146,-0.1543,9.4625,-0.152,0.092,-0.0262
32.78,0.4126,-0.218,9.8381,-0.1305,0.0058,-0.0215
32.8,0.4304,0.2325,10.0312,-0.0208,-0.0241,-0.0355
32.82,0.7158,-0.0051,9.9624,-0.0095,-0.0483,-0.0199
32.84,0.5515,-0.0473,9.8699,-0.0094,-0.0141,0.0203
32.86,0.4989,-0.1952,9.4751,0.0203,-0.0077,0.01
32.88,0.2848,-0.3321,9.7723,0.0083,0.0242,0.0102
32.9,0.5548,-0.1445,9.9049,0.0294,-0.0011,-0.0036
32.92,0.7051,-0.2096,9.6098,-0.0203,0.0028,-0.0107
32.94,0.5558,-0.2053,9.7366,-0.0411,-0.03,0.0084
32.96,0.3154,0.0272,9.7606,0.0175,-0.0191,-0.0067
32.98,0.4117,-0.2436,9.9298,0.0361,-0.0495,-0.0262
33.0,0.5493,-0.0077,9.9859,0.1126,-0.0047,-0.0203
33.02,0.5932,-0.0812,9.6723,0.1736,0.0874,-0.0463
33.04,0.5761,-0.0777,9.426,0.2132,0.1778,-0.0176
33.06,0.3216,0.3597,9.2387,0.1604,0.1335,0.0521
33.08,0.4972,0.113,9.0816,-0.1585,-0.1518,0.1505
33.1,0.1171,-0.2286,8.9993,-0.546,-0.4078,0.2349
33.12,-0.4955,-0.1267,8.9175,-0.8073,-0.3876,0.2718
33.14,-0.7672,-0.4981,10.2943,-0.7806,0.0446,0.2196
33.16,-0.1595,-0.6795,12.6404,-0.3596,0.52,0.0828
33.18,0.7211,-0.561,12.3783,0.2386,0.5774,-0.0484
33.2,1.3589,-0.8337,10.694,0.7068,0.1635,-0.1979
33.22,1.2688,-0.6702,9.2688,0.8348,-0.3248,-0.263
33.24,0.6567,-0.1998,8.9456,0.6359,-0.4289,-0.2515
33.26,0.381,-0.4264,9.0676,0.2157,-0.2241,-0.1591
33.28,0.3959,-0.2772,9.1154,-0.0904,0.0791,-0.0837
33.3,0.4231,-0.0645,9.2658,-0.1753,0.186,-0.0035
33.32,0.191,-0.2565,9.6658,-0.2229,0.1138,0.0209
33.34,0.3706,-0.358,9.8764,-0.1216,0.0302,0.0361
33.36,0.4334,-0.4141,9.9641,-0.0519,-0.0346,0.0085
33.38,0.2079,-0.7827,9.9058,0.0041,-0.0362,-0.0061
33.4,0.198,-0.4961,9.9872,0.0001,-0.0244,0.0132
33.42,0.1488,-0.3533,9.7454,0.0098,0.0177,0.0094
33.44,0.072,-0.4449,9.8674,-0.0047,-0.0232,0.022
33.46,0.174,-0.5868,9.8145,-0.0166,0.011,-0.0013
33.48,0.6507,-0.6035,9.6358,0.0097,-0.002,0.0065
33.5,0.4628,-0.6082,9.7232,-0.0036,0.0111,0.0097
33.52,0.1031,-0.414,9.9269,-0.0244,-0.0279,0.0101
33.54,0.2393,-0.6846,9.9276,0.0359,-0.0148,0.0391
33.56,0.4356,-0.4706,9.7951,0.1131,-0.0099,0.0434
33.58,0.4087,-0.4087,9.5896,0.2138,0.1203,0.0225
33.6,0.5347,-0.6735,9.394,0.1924,0.181,0.0088
33.62,0.2697,-0.7578,9.1521,0.0924,0.0567,-0.0893
33.64,0.2909,-0.8206,9.0951,-0.2563,-0.2083,-0.1594
33.66,0.0044,-0.8553,8.9512,-0.6254,-0.4577,-0.2246
33.68,-0.4948,-0.432,9.3042,-0.815,-0.3034,-0.2761
33.7,-0.7793,-0.2411,11.3889,-0.7198,0.1976,-0.2229
33.72,-0.1157,0.0677,12.6213,-0.2383,0.5899,-0.0318
33.74,1.1045,-0.1176,12.3987,0.3318,0.5419,0.101
33.76,1.7547,-0.2892,10.4005,0.7903,0.0242,0.234
33.78,1.0129,-0.3341,8.8829,0.7907,-0.3715,0.2525
33.8,0.7308,-0.6612,8.8732,0.5308,-0.3784,0.2291
33.82,0.2702,-0.8725,9.0632,0.1555,-0.1428,0.1249
33.84,0.2681,-0.5542,9.1595,-0.1658,0.1396,0.0509
33.86,0.2468,-0.7038,9.3708,-0.2015,0.1835,-0.0296
33.88,0.2104,-0.388,9.7384,-0.1763,0.0551,-0.0415
33.9,0.1511,-0.3699,9.8026,-0.1242,-0.0267,-0.0399
33.92,0.1664,-0.2709,9.8404,0.0178,-0.0396,-0.0028
33.94,0.5361,-0.1391,9.9623,0.0014,-0.0221,-0.0059
33.96,0.5259,-0.6989,9.9788,0.0396,-0.0033,0.0217
33.98,0.3158,-0.5233,9.9199,-0.0088,-0.0059,0.0073
34.0,0.4169,-0.2149,9.8724,-0.0072,0.0077,0.0147
34.02,0.4597,-0.1766,9.8742,-0.0164,0.0114,0.0196
34.04,0.3919,0.12,10.064,0.0251,0.0171,0.0045
34.06,0.5907,-0.1743,9.8255,-0.0206,-0.0042,-0.0019
34.08,0.5264,-0.352,9.9783,0.0231,-0.0446,-0.0157
34.1,0.3661,-0.0964,10.0149,0.0199,-0.0226,-0.0232
34.12,0.8483,-0.0883,9.6226,0.0882,-0.014,-0.0409
34.14,0.7091,-0.1769,9.5769,0.1535,0.1007,-0.039
34.16,0.4609,-0.029,9.5302,0.1432,0.1544,-0.0255
34.18,0.3802,-0.1605,9.321,0.0659,0.0366,0.0531
34.2,0.2604,-0.0175,9.2826,-0.1851,-0.1791,0.1198
34.22,0.1004,-0.5372,9.097,-0.4313,-0.3121,0.1915
34.24,-0.2346,-0.0988,9.3359,-0.6433,-0.2403,0.2018
34.26,-0.4565,-0.4526,10.4831,-0.5359,0.1364,0.1352
34.28,0.0169,-0.3565,11.6462,-0.1915,0.4527,0.0468
34.3,1.2616,-0.3519,11.9694,0.2794,0.3687,-0.0989
34.32,1.4748,-0.4007,10.2187,0.5911,0.0326,-0.1577
34.34,1.0199,-0.071,9.1048,0.6102,-0.265,-0.2012
34.36,0.759,0.0915,9.212,0.4191,-0.3252,-0.1653
34.38,0.5006,0.2584,9.3737,0.1103,-0.1126,-0.089
34.4,0.3555,0.0115,9.311,-0.0823,0.1087,-0.0417
34.42,0.1252,-0.1399,9.5801,-0.1672,0.1494,0.0102
34.44,0.2318,-0.038,9.6252,-0.1521,0.0832,0.0186
34.46,0.4052,-0.1583,9.728,-0.0818,0.0201,0.0529
34.48,0.6972,-0.0606,9.8509,-0.0159,-0.0543,0.0281
34.5,0.4561,-0.2387,9.9411,-0.0306,-0.0117,-0.0024
34.52,0.4567,-0.1564,9.8563,-0.036,-0.0127,-0.0181
34.54,0.5436,-0.2661,9.9022,-0.0168,-0.0211,0.0025
34.56,0.5363,-0.4517,10.0846,0.0493,-0.0491,0.0105
34.58,0.2401,-0.2641,9.9811,0.153,0.0442,0.0375
34.6,0.3556,-0.3352,9.6367,0.2257,0.1327,0.0112
34.62,0.6162,-0.6808,9.4666,0.2504,0.1753,-0.0193
34.64,0.5515,-0.4329,9.2504,0.0554,0.0311,-0.0881
34.66,0.433,-0.5769,9.0354,-0.3213,-0.2607,-0.1822
34.68,0.2267,-0.4106,8.8204,-0.7196,-0.4527,-0.2552
34.7,-0.4754,-0.3217,9.2503,-0.8709,-0.2563,-0.2792
34.72,-0.5324,-0.0238,11.6601,-0.6749,0.2485,-0.1894
34.74,0.1403,-0.1195,13.1167,-0.1333,0.6617,-0.026
34.76,1.1928,-0.1431,12.1004,0.4796,0.476,0.13
34.78,1.6598,-0.0993,10.2541,0.8567,-0.042,0.2559
34.8,0.9678,-0.3706,8.8516,0.8332,-0.4503,0.2609
34.82,0.4455,-0.4536,8.8859,0.5455,-0.3932,0.2341
34.84,0.3542,-0.8467,8.9832,0.1065,-0.0868,0.1168
34.86,0.3301,-0.7879,9.3789,-0.1548,0.1327,0.0496
34.88,0.0845,-0.7587,9.6474,-0.2181,0.1937,-0.0191
34.9,0.4374,-0.7528,9.6466,-0.1982,0.0484,-0.0376
34.92,0.0027,-0.4432,9.8777,-0.0856,-0.0217,-0.0275
34.94,0.2634,-0.6209,9.9623,0.007,-0.041,-0.0245
34.96,0.1231,-0.4642,9.7898,-0.0043,0.0055,-0.0125
34.98,0.2393,-0.1855,9.719,0.0025,0.0108,-0.0095
35.0,0.4005,-0.3985,9.7622,0.023,-0.0029,0.007
35.02,0.2776,-0.768,9.8352,0.0031,0.0189,-0.0033
35.04,0.357,-0.692,9.746,-0.0076,-0.0251,0.0023
35.06,0.2907,-0.5497,10.0022,-0.0198,0.0051,-0.0012
35.08,0.3462,-0.61,9.7722,-0.002,0.0133,-0.0189
35.1,0.2274,-0.3872,9.7962,-0.0096,-0.0226,-0.0403
35.12,0.6461,-0.6161,10.1001,0.0248,-0.0444,-0.023
35.14,0.3834,-0.7519,9.9321,0.094,-0.0152,-0.0154
35.16,0.7874,-0.3598,9.6523,0.1819,0.0395,-0.0374
35.18,0.3464,-0.0267,9.3148,0.2253,0.1673,-0.0337
35.2,0.2176,-0.4732,9.3619,0.172,0.1638,0.0208
35.22,0.4819,-0.1531,9.0364,-0.0779,-0.0665,0.1258
35.24,-0.0798,-0.3289,8.9692,-0.476,-0.3864,0.2353
35.26,-0.1566,-0.312,8.7744,-0.7968,-0.4596,0.2703
35.28,-0.7983,-0.7444,9.811,-0.8474,-0.0643,0.2464
35.3,-0.705,-1.0627,11.8734,-0.5002,0.4353,0.1318
35.32,0.6853,-0.7902,13.367,0.0905,0.6495,-0.0321
35.34,1.6025,-0.8061,11.3923,0.6275,0.3118,-0.1609
35.36,1.4561,-0.5721,9.3037,0.8788,-0.2189,-0.2602
35.38,0.8541,-0.4658,8.7864,0.7389,-0.4748,-0.2527
35.4,0.7733,-0.2029,9.0139,0.3502,-0.324,-0.2161
35.42,0.4321,-0.3572,9.1849,-0.0049,-0.0031,-0.0775
35.44,0.1374,-0.1614,9.1545,-0.2388,0.215,-0.0224
35.46,0.1261,0.0406,9.4871,-0.2595,0.1264,0.0307
35.48,0.3731,-0.015,9.7499,-0.1767,0.0246,0.027
35.5,0.3237,-0.2762,9.8628,-0.07,-0.0267,0.0241
35.52,0.4816,-0.1244,9.8856,0.0187,-0.0206,0.025
35.54,0.4286,-0.0511,10.0407,0.0291,-0.0252,0.0015
35.56,0.5342,-0.2127,9.8235,0.0215,-0.0473,-0.0134
35.58,0.2574,-0.2362,9.7786,0.0181,-0.0106,0.0054
35.6,0.4149,0.1173,9.7432,-0.0093,-0.0013,-0.0086
35.62,0.3595,0.1863,9.8934,-0.041,-0.0468,0.0192
35.64,0.4384,-0.1137,10.0412,0.0311,-0.0329,0.0281
35.66,0.7286,-0.1368,9.8523,0.0693,-0.0295,0.0278
35.68,0.6848,-0.3018,9.8104,0.1701,0.0637,0.0382
35.7,0.6022,-0.0784,9.4266,0.2088,0.1564,0.0059
35.72,0.4876,-0.3413,9.3114,0.0992,0.1313,-0.0404
35.74,0.654,-0.3297,9.1009,-0.1561,-0.1036,-0.1223
35.76,0.5657,-0.2726,8.9122,-0.4759,-0.3804,-0.199
35.78,-0.3168,0.2045,9.0795,-0.7218,-0.3786,-0.2452
35.8,-0.4643,0.1183,10.5317,-0.7051,0.034,-0.1927
35.82,-0.3353,0.2377,12.2984,-0.3407,0.4991,-0.0916
35.84,0.9618,0.3662,12.3511,0.2142,0.5154,0.0617
35.86,1.7902,-0.0564,11.0735,0.6952,0.1442,0.1802
35.88,1.325,0.0235,9.0858,0.7625,-0.2911,0.2352
35.9,0.7979,-0.2407,8.8798,0.5556,-0.4057,0.1989
35.92,0.6889,-0.3573,8.8824,0.2061,-0.173,0.1459
35.94,0.441,-0.6061,8.9483,-0.0882,0.0635,0.0522
35.96,0.3617,-0.3757,9.2429,-0.1808,0.145,-0.0079
35.98,0.2637,-0.3487,9.7792,-0.1589,0.1065,-0.0264
36.0,0.1209,-0.4576,10.1375,-0.0923,0.0076,-0.0423
36.02,0.576,-0.3209,10.0391,-0.0396,-0.0377,-0.0313
36.04,0.4153,-0.2476,9.8505,0.0318,-0.0208,-0.0265
36.06,0.5419,-0.2891,9.9578,0.0197,0.026,0.0009
36.08,0.528,-0.2267,9.8684,0.005,-0.0198,0.0256
36.1,0.4841,-0.3902,9.7743,0.023,-0.0108,-0.0209
36.12,0.3866,-0.1987,10.0818,-0.0225,0.0072,-0.0085
36.14,0.2664,-0.0817,10.304,-0.0345,-0.0317,-0.0137
36.16,0.5217,-0.277,9.7454,0.0153,-0.0744,-0.0099
36.18,0.8294,-0.2009,9.8729,0.117,-0.0057,-0.0139
36.2,0.6596,-0.4677,9.5929,0.1687,0.0953,-0.0374
36.22,0.5536,-0.2245,9.3594,0.2199,0.1888,-0.0165
36.24,0.1316,-0.3357,9.0701,0.0952,0.0998,0.0475
36.26,0.2111,-0.5771,8.9827,-0.221,-0.179,0.1543
36.28,-0.036,-0.4735,8.8478,-0.5885,-0.4245,0.2334
36.3,-0.434,-0.4697,8.7969,-0.8414,-0.382,0.251
36.32,-0.8952,-1.0025,10.2903,-0.8028,0.0815,0.2043
36.34,0.0449,-1.0047,12.8019,-0.3108,0.5643,0.0957
36.36,0.9414,-0.9459,12.4291,0.3257,0.5752,-0.0843
36.38,1.3716,-0.8519,10.4222,0.7866,0.1275,-0.21
36.4,1.3739,-0.4721,9.1222,0.8827,-0.3603,-0.2745
36.42,0.5932,-0.3652,9.0337,0.6236,-0.4498,-0.2102
36.44,0.3525,0.1682,9.1592,0.2066,-0.1706,-0.1565
36.46,0.2252,-0.1802,9.3109,-0.0926,0.091,-0.0591
36.48,0.2413,-0.4842,9.3197,-0.2219,0.1772,0.0295
36.5,-0.0616,-0.4005,9.5869,-0.1786,0.1057,0.0467
36.52,0.1042,-0.4824,9.8424,-0.0974,0.0081,0.0437
36.54,0.2981,-0.5321,9.8045,-0.0036,-0.0222,0.0342
36.56,0.62,-0.591,10.1062,0.0201,0.0006,0.0152
36.58,0.2426,-0.6052,9.7896,0.0174,-0.0033,-0.0159
36.6,0.5609,-0.4519,9.9819,0.0022,0.0084,0.0184
36.62,0.4753,-0.6221,9.6934,0.0368,0.0277,0.0015
36.64,0.2133,-0.1809,9.8768,0.0279,0.0051,-0.0127
36.66,0.5237,-0.1918,9.7701,-0.0097,0.0282,-0.0136
36.68,0.469,-0.4284,9.6241,-0.0047,-0.0024,-0.0246
36.7,0.3441,-0.4161,9.7147,0.003,0.0022,0.0045
36.72,0.4553,-0.5357,9.9286,-0.0023,-0.0279,0.0139
36.74,0.5511,-0.5119,10.3088,0.0471,-0.0115,-0.002
36.76,0.5501,-0.3475,9.9605,0.0882,-0.0182,0.0418
36.78,0.4822,-0.5531,9.6852,0.1883,0.0786,0.0302
36.8,0.4579,-0.4252,9.2539,0.2179,0.1512,-0.0311
36.82,0.4095,-0.4021,9.1394,0.0736,0.0562,-0.0829
36.84,0.3502,-0.7797,9.1386,-0.2206,-0.2245,-0.14
36.86,0.0932,-0.4886,8.8009,-0.5924,-0.4051,-0.2228
36.88,-0.4602,-0.123,9.2901,-0.7553,-0.2702,-0.2306
36.9,-0.805,0.171,10.9521,-0.6371,0.1775,-0.1926
36.92,-0.229,0.1918,12.5664,-0.1541,0.5602,-0.0241
36.94,1.1895,0.1337,12.4167,0.3541,0.4612,0.1311
36.96,1.547,0.1638,10.118,0.7485,0.0193,0.2112
36.98,0.841,0.1024,8.8765,0.7418,-0.3906,0.2403
37.0,0.5842,-0.0734,8.9468,0.4718,-0.3795,0.2069
37.02,0.4915,-0.5854,9.154,0.1047,-0.1228,0.1254
37.04,0.5274,-0.3887,9.433,-0.1427,0.0817,0.0184
37.06,0.3448,-0.3205,9.3882,-0.2046,0.1707,-0.0126
37.08,0.2643,-0.2479,9.61,-0.1592,0.0624,-0.0407
37.1,0.3446,-0.2783,9.8731,-0.0895,-0.0144,-0.0448
37.12,0.3894,0.0294,9.8818,-0.0025,-0.0342,-0.0027
37.14,0.4793,-0.1052,9.5845,0.0399,-0.0329,-0.0234
37.16,0.4123,-0.0342,9.6686,0.0061,-0.0077,-0.0077
37.18,0.5584,-0.0369,9.8076,0.03,0.0266,-0.029
37.2,0.6998,-0.1122,9.8669,-0.0208,0.0004,-0.0036
37.22,0.5833,-0.2089,9.8789,-0.0256,0.0055,-0.0006
37.24,0.7665,-0.0779,9.6956,0.0041,0.0184,-0.016
37.26,0.1753,-0.0754,9.8817,-0.0072,-0.0295,0.0009
37.28,0.5909,-0.1792,10.3807,0.0192,-0.0316,-0.0187
37.3,0.6866,-0.1484,9.8024,0.103,-0.0113,-0.0285
37.32,0.54,-0.3093,9.6801,0.1605,0.0564,-0.0389
37.34,0.4142,-0.0969,9.45,0.1864,0.1218,-0.0072
37.36,0.393,-0.2802,9.5383,0.173,0.1418,0.0329
37.38,0.5974,-0.0622,9.1946,-0.0164,-0.0724,0.0949
37.4,0.1622,-0.2051,9.0095,-0.3851,-0.3189,0.1741
37.42,-0.2013,-0.6014,8.9732,-0.6972,-0.3857,0.218
37.44,-0.5661,-0.5486,9.9407,-0.7502,-0.0826,0.1956
37.46,-0.2815,-0.6292,11.4909,-0.4342,0.4173,0.1163
37.48,0.4147,-0.7868,12.9766,0.0597,0.5334,-0.0194
37.5,1.5009,-0.6936,11.5397,0.5557,0.2717,-0.1454
37.52,1.4197,-0.3772,9.6207,0.7776,-0.1949,-0.2381
37.54,0.9515,-0.5297,9.0897,0.6465,-0.4341,-0.2555
37.56,0.2724,-0.347,9.1009,0.3237,-0.2863,-0.1825
37.58,0.4257,-0.2165,9.1373,-0.0092,0.004,-0.0877
37.6,0.0754,-0.4434,9.2177,-0.1698,0.1724,-0.0197
37.62,0.3526,-0.4106,9.3047,-0.1955,0.1098,0.0176
37.64,0.1318,-0.6816,9.569,-0.1419,0.0521,0.0541
37.66,0.1934,-0.2784,9.9582,-0.0625,-0.0358,0.0422
37.68,0.4328,-0.5572,10.0242,0.0228,-0.0323,0.0143
37.7,0.4781,-0.5102,9.6784,0.0008,-0.0024,0.0048
37.72,0.326,-0.3044,9.583,-0.001,0.0121,0.0235
37.74,0.3,-0.4975,9.8235,0.0109,-0.0176,0.0106
37.76,0.4351,-0.5573,10.021,0.0371,-0.0237,-0.0031
37.78,0.2345,-0.8251,9.8605,0.0054,-0.0194,-0.0045
37.8,0.627,-0.3416,9.7449,-0.013,-0.0146,-0.0099
37.82,0.3751,-0.4716,9.638,-0.0016,-0.0262,0.0057
37.84,0.2141,-0.6835,9.6318,-0.0018,-0.0102,0.0023
37.86,0.2529,-0.4701,9.8838,0.0298,-0.0444,0.0415
37.88,0.7624,-0.5921,9.8467,0.0687,-0.0407,0.0061
37.9,0.5126,-0.5003,9.636,0.1247,0.0787,0.0374
37.92,0.3395,-0.5099,9.6369,0.1902,0.1536,0.0152
37.94,0.1543,-0.6081,9.3132,0.1519,0.0888,-0.0529
37.96,0.3199,-0.44,9.1538,-0.1194,-0.093,-0.123
37.98,0.3212,-0.3044,8.9353,-0.4019,-0.3605,-0.1795
38.0,-0.5256,-0.6043,9.0633,-0.7015,-0.3293,-0.2001
38.02,-0.3831,-0.2687,10.3761,-0.6244,0.0226,-0.1874
38.04,-0.0096,-0.1711,11.9882,-0.2775,0.4348,-0.0881
38.06,0.6496,0.1387,12.3235,0.1908,0.4836,0.0633
38.08,1.4836,-0.0946,10.443,0.5724,0.1806,0.1652
38.1,1.3164,-0.3433,9.3094,0.6662,-0.2313,0.2104
38.12,0.6601,-0.3131,8.916,0.5422,-0.3838,0.222
38.14,0.3856,-0.8213,8.9438,0.2263,-0.2055,0.1368
38.16,0.419,-0.5075,9.3617,-0.0242,0.0467,0.0457
38.18,0.5178,-0.7198,9.6686,-0.165,0.1643,-0.0016
38.2,0.0803,-0.3257,9.6723,-0.1772,0.0959,-0.025
38.22,0.2793,-0.3167,10.0892,-0.0859,0.0116,-0.0231
38.24,0.3575,-0.3052,9.9163,-0.004,-0.0291,-0.0112
38.26,0.2866,-0.4992,10.0058,0.0185,-0.0393,-0.0151
38.28,0.4843,0.0486,9.7598,0.0264,-0.0235,-0.003
38.3,0.4319,0.0897,9.8447,-0.0102,-0.0037,0.004
38.32,0.5709,-0.5489,9.838,0.0194,-0.0271,0.0177
38.34,0.5138,-0.1376,9.8647,-0.0008,0.0251,-0.027
38.36,0.3967,-0.4188,9.7638,-0.0147,0.0074,0.0101
38.38,0.2753,0.0486,9.7542,0.031,-0.0007,-0.0029
38.4,0.3985,-0.1267,9.9413,0.0453,-0.0318,-0.0321
38.42,0.5605,0.2541,10.0666,0.082,-0.0246,-0.0414
38.44,1.1307,0.102,9.6507,0.2057,0.0515,-0.0425
38.46,0.7516,-0.0739,9.5351,0.2168,0.1723,0.0115
38.48,0.388,-0.2302,9.3919,0.1329,0.1105,0.0437
38.5,0.6771,0.1623,9.1003,-0.0927,-0.0977,0.1159
38.52,0.3279,-0.1462,9.022,-0.4527,-0.3602,0.197
38.54,-0.0119,-0.3529,8.8217,-0.6874,-0.3319,0.2156
38.56,-0.3667,-0.2463,9.8271,-0.6839,0.012,0.2091
38.58,-0.0162,-0.6082,12.1997,-0.3565,0.4198,0.1062
38.6,0.6608,-0.6612,12.141,0.1377,0.5261,-0.0396
38.62,1.4017,-0.6601,10.6324,0.5785,0.2072,-0.1555
38.64,1.4715,-0.1473,9.2623,0.7137,-0.2378,-0.1997
38.66,0.7337,-0.1902,9.0936,0.5932,-0.395,-0.1812
38.68,0.661,0.1601,9.1121,0.2606,-0.2015,-0.144
38.7,0.4802,-0.0883,9.3468,-0.0411,0.0551,-0.0693
38.72,0.4458,-0.0898,9.5537,-0.2003,0.1611,0.0013
38.74,0.2212,-0.1897,9.5674,-0.1625,0.1118,0.0465
38.76,0.1937,-0.2081,9.8305,-0.1033,0.0201,0.0306
38.78,0.3687,-0.2861,9.8258,-0.0328,-0.0395,-0.0061
38.8,0.501,-0.4678,9.9646,-0.003,-0.0141,0.0158
38.82,0.3031,-0.3357,9.8528,-0.0151,-0.021,0.0058
38.84,0.3778,-0.4265,9.8194,0.0213,-0.028,-0.0001
38.86,0.3806,-0.2797,10.1276,0.0392,-0.0052,0.0098
38.88,0.2537,-0.3683,9.7136,0.1014,-0.0131,0.0493
38.9,0.5438,-0.4952,9.7122,0.2075,0.05,0.0512
38.92,0.3455,-0.2443,9.2016,0.2199,0.1753,0.0191
38.94,0.3056,-0.4269,9.0907,0.1433,0.1007,-0.0472
38.96,0.1024,-0.1576,9.3322,-0.1168,-0.1012,-0.1181
38.98,0.1099,-0.5098,8.7519,-0.4757,-0.3813,-0.2114
39.0,-0.449,-0.5107,8.9487,-0.7866,-0.3662,-0.2539
39.02,-0.8695,-0.0626,10.0822,-0.7464,0.0113,-0.2123
39.04,-0.3999,0.0873,12.6959,-0.3813,0.5103,-0.1033
39.06,0.7156,-0.019,13.0353,0.2228,0.5625,0.0655
39.08,1.1951,-0.0978,10.6109,0.6739,0.2042,0.1906
39.1,1.5091,-0.3401,9.2507,0.7915,-0.2949,0.2557
39.12,0.7552,-0.4207,8.8297,0.6062,-0.4182,0.2248
39.14,0.3906,-0.8545,9.0978,0.2216,-0.2317,0.1619
39.16,0.1935,-0.7568,9.0651,-0.0479,0.0556,0.0812
39.18,0.3404,-0.6194,9.3585,-0.1782,0.1642,0.0008
39.2,0.0941,-0.567,9.4203,-0.2091,0.0874,-0.0407
39.22,0.2784,-0.4962,9.6799,-0.0841,-0.016,-0.0229
39.24,0.1956,-0.5193,10.1718,-0.0434,-0.0543,-0.0392
39.26,0.369,-0.6243,10.0215,0.0071,-0.01,-0.0037
39.28,0.154,-0.6905,9.9209,0.0121,0.0109,-0.0108
39.3,0.4093,-0.5183,9.8453,0.0108,0.0144,-0.0135
39.32,0.5595,-0.6285,9.8203,0.0133,-0.0056,-0.0029
39.34,0.5151,-0.7217,9.9144,-0.0177,-0.0142,0.0043
39.36,0.2852,-0.501,9.897,0.0389,-0.0494,-0.0078
39.38,0.6028,-0.2554,9.8832,0.114,0.0318,-0.038
39.4,0.4339,-0.4817,9.4829,0.1445,0.0835,-0.0233
39.42,0.3116,-0.2455,9.6065,0.185,0.1375,0.0182
39.44,0.0714,-0.4007,9.1207,0.0783,0.043,0.05
39.46,0.6381,-0.4701,9.2292,-0.1522,-0.1734,0.1128
39.48,-0.0286,-0.4179,9.1183,-0.4319,-0.3717,0.1887
39.5,-0.2508,-0.6137,9.3022,-0.6204,-0.1945,0.1944
39.52,-0.2128,-0.5791,10.9267,-0.5269,0.1393,0.1367
39.54,0.3406,-0.7014,11.9307,-0.1261,0.4566,0.0297
39.56,0.7091,-0.8101,11.2556,0.3331,0.3762,-0.0884
39.58,1.0453,-0.7285,10.0061,0.5979,-0.0016,-0.1577
39.6,0.967,-0.2929,9.2371,0.5824,-0.2837,-0.184
39.62,0.5097,-0.1681,9.2296,0.3376,-0.297,-0.1926
39.64,0.5485,-0.3293,9.4014,0.1431,-0.0755,-0.097
39.66,0.4341,0.0793,9.3557,-0.1472,0.101,-0.0438
39.68,0.2814,0.033,9.6133,-0.1493,0.1373,0.0222
39.7,0.194,-0.2294,9.5006,-0.1401,0.0565,0.0154
39.72,0.2532,-0.2784,9.7617,-0.0575,-0.0047,0.0077
39.74,0.6686,-0.327,9.9608,-0.0152,-0.0245,0.0316
39.76,0.5336,-0.2626,9.8606,-0.0058,-0.0344,0.0388
39.78,0.6012,-0.4957,9.8274,-0.0137,-0.0148,0.0045
39.8,0.2999,-0.0284,9.809,0.022,0.0328,-0.03
39.82,0.4035,0.1992,9.8787,0.0207,0.0311,0.0135
39.84,0.4564,-0.239,9.6801,0.0086,0.0049,-0.0068
39.86,0.6143,-0.1325,10.0607,0.014,-0.0113,-0.0098
39.88,0.4235,0.3245,9.9378,0.0009,-0.0232,0.0116
39.9,0.5019,0.1013,9.8778,0.0321,-0.0364,0.0245
39.92,0.6027,-0.2175,9.7416,0.1195,-0.009,0.0297
39.94,0.5265,-0.0866,9.4774,0.2046,0.1221,0.0271
39.96,0.3344,-0.2656,9.38,0.2514,0.1918,0.0036
39.98,0.3961,-0.471,9.2171,0.097,0.0943,-0.0423
40.0,0.3251,-0.1704,8.8944,-0.2007,-0.2021,-0.1477
40.02,0.1422,-0.2405,8.9369,-0.5899,-0.4712,-0.2525
40.04,-0.4792,0.1059,8.9768,-0.8554,-0.3207,-0.2437
40.06,-0.3437,0.2297,10.8027,-0.7271,0.1556,-0.1965
40.08,-0.1009,0.3733,13.0819,-0.2724,0.61,-0.0751
40.1,0.9878,0.2435,12.4182,0.3428,0.5378,0.1073
40.12,1.5987,-0.1035,10.4251,0.8118,0.0761,0.224
40.14,1.3702,-0.133,8.6435,0.8766,-0.3746,0.2643
40.16,0.6762,-0.2552,8.666,0.5793,-0.4419,0.2213
40.18,0.4824,-0.4296,8.9997,0.1852,-0.2017,0.1627
40.2,0.6239,-0.3866,9.126,-0.1227,0.0986,0.0685
40.22,0.2289,-0.6341,9.4223,-0.2311,0.1528,-0.0104
40.24,0.2712,-0.3874,9.6804,-0.1909,0.0939,-0.0321
40.26,0.2597,-0.1103,9.828,-0.0804,0.002,-0.0326
40.28,0.2152,-0.2751,9.8714,-0.004,-0.0329,-0.0247
40.3,0.1955,-0.2589,9.9273,0.0242,-0.0439,-0.0161
40.32,0.2167,-0.271,9.7069,0.0238,0.0103,-0.0151
40.34,0.2348,-0.1973,9.7797,0.0038,-0.0074,0.0052
40.36,0.2251,-0.231,9.673,0.0049,0.0224,-0.0206
40.38,-0.0829,-0.4407,9.7841,-0.0251,-0.0107,0.0138
40.4,0.4367,-0.3304,9.7915,0.0021,-0.0081,-0.0002
40.42,0.1918,-0.3125,10.047,0.0229,-0.0109,-0.0139
40.44,0.5147,-0.2632,9.7517,0.1143,0.0137,-0.0355
40.46,0.549,-0.6224,9.6571,0.2095,0.0908,-0.0342
40.48,0.3861,-0.4387,9.3756,0.1768,0.1604,-0.0218
40.5,0.2452,-0.3236,9.3698,0.1195,0.1034,0.0693
40.52,0.2859,-0.5016,9.1831,-0.1984,-0.1893,0.1348
40.54,0.0294,-0.3803,8.9121,-0.4836,-0.3991,0.202
40.56,-0.3622,-0.624,9.1348,-0.7279,-0.3341,0.2302
40.58,-0.513,-0.9114,10.3301,-0.6675,0.0739,0.1616
40.6,0.0469,-0.7031,12.3907,-0.29,0.4985,0.0794
40.62,0.667,-1.1377,12.6218,0.2566,0.5059,-0.0644
40.64,1.2291,-0.6747,10.2349,0.7035,0.0923,-0.1813
40.66,1.0987,-0.856,9.036,0.7607,-0.314,-0.2048
40.68,0.4734,-0.7451,9.3455,0.5307,-0.3852,-0.194
40.7,0.2742,-0.2619,9.2232,0.1746,-0.1656,-0.1173
40.72,0.2172,-0.4105,9.3321,-0.0875,0.0892,-0.0591
40.74,0.4451,-0.3269,9.5215,-0.1829,0.1811,0.018
40.76,0.276,-0.1165,9.7481,-0.1507,0.0789,0.0195
40.78,0.1438,-0.4648,9.6043,-0.0728,0.0019,0.0256
40.8,0.364,-0.4857,10.1388,-0.016,-0.0356,0.0109
40.82,0.368,-0.4529,9.6546,0.0112,-0.0248,0.0136
40.84,0.2285,-0.7535,9.7752,0.0178,-0.0124,-0.0068
40.86,0.3238,-0.4088,9.9176,-0.0039,-0.0286,0.0114
40.88,0.3861,-0.4133,10.0715,0.0347,-0.0479,0.024
40.9,0.3256,-0.3096,9.7366,0.1166,0.0127,0.0237
40.92,0.2345,-0.5429,9.5952,0.1891,0.09,0.0034
40.94,0.452,-0.4266,9.4647,0.1614,0.151,-0.0013
40.96,0.3249,-0.5478,9.2833,0.0545,0.0487,-0.0549
40.98,0.5035,-0.6915,8.9208,-0.1767,-0.1871,-0.1457
41.0,-0.1164,-0.319,8.8905,-0.5081,-0.3692,-0.2098
41.02,-0.1067,-0.1118,9.3947,-0.6644,-0.249,-0.2112
41.04,-0.6242,0.1434,10.3128,-0.5454,0.1793,-0.1508
41.06,-0.0524,0.0145,12.3015,-0.1687,0.4836,-0.0239
41.08,0.936,0.1211,12.1403,0.3449,0.4104,0.0929
41.1,1.2883,-0.0728,10.1927,0.6548,-0.0144,0.1704
41.12,1.0526,-0.2398,9.0158,0.6627,-0.3004,0.2251
41.14,0.8124,-0.089,9.0622,0.4254,-0.3007,0.1823
41.16,0.3523,-0.5161,9.3454,0.1252,-0.1048,0.1142
41.18,0.3777,-0.1266,9.2177,-0.1008,0.0846,0.0247
41.2,0.4068,-0.2865,9.5952,-0.1697,0.123,0.0063
41.22,0.3404,-0.0427,9.7318,-0.1116,0.0684,-0.0159
41.24,0.2287,-0.1599,9.679,-0.0767,-0.0125,-0.0052
41.26,0.5895,-0.0194,9.8435,-0.0321,-0.0371,-0.0143
41.28,0.5917,-0.0698,9.8107,0.0026,-0.0177,-0.006
41.3,0.5301,0.0347,9.6438,-0.0088,0.0146,0.0029
41.32,0.4075,0.0505,9.7206,0.0015,0.0096,0.0055
41.34,0.3748,0.0683,10.1005,0.0107,0.0039,0.0105
41.36,0.4717,-0.1893,9.6531,0.0099,-0.0275,0.0081
41.38,0.435,0.008,9.754,-0.0068,-0.0042,-0.007
41.4,0.5113,-0.2332,9.8726,0.0053,0.0102,-0.0324
41.42,0.636,-0.3628,9.9849,-0.0124,-0.0085,-0.0022
41.44,0.346,-0.4283,10.0636,0.013,-0.0538,-0.0234
41.46,0.6548,0.0558,9.7811,0.1021,-0.0247,-0.0354
41.48,0.5468,-0.0861,9.5092,0.2009,0.1112,-0.0185
41.5,0.1917,-0.1799,9.5211,0.2292,0.172,-0.0048
41.52,0.5603,0.1964,9.3022,0.1155,0.1175,0.0379
41.54,0.3435,-0.1172,9.1108,-0.1503,-0.1741,0.1272
41.56,0.3526,-0.0995,8.906,-0.5343,-0.3944,0.2104
41.58,-0.3942,-0.4669,9.1715,-0.7561,-0.3478,0.2484
41.6,-0.5778,-0.7276,10.3914,-0.6692,0.0878,0.1954
41.62,-0.0719,-0.5922,12.5099,-0.2852,0.5156,0.078
41.64,1.1048,-0.7938,12.3392,0.251,0.5221,-0.07
41.66,1.1625,-0.6284,10.3098,0.6701,0.1442,-0.19
41.68,1.1446,-0.3453,9.3008,0.76,-0.3384,-0.2485
41.7,0.5688,-0.1456,8.9222,0.5404,-0.4063,-0.2165
41.72,0.5757,-0.3284,9.0413,0.2017,-0.168,-0.1269
41.74,0.259,0.0642,9.2827,-0.0876,0.0818,-0.0469
41.76,0.6176,0.0667,9.6296,-0.188,0.1743,0.0082
41.78,0.4371,-0.3013,9.6786,-0.19,0.0986,0.0271
41.8,0.193,-0.2279,9.7515,-0.1219,0.01,0.0272
41.82,0.5706,-0.3729,9.9406,-0.0075,-0.0463,0.0189
41.84,0.5569,-0.1818,9.8747,0.0262,-0.0166,0.0086
41.86,0.057,-0.3797,9.6414,0.0387,-0.0065,0.0184
41.88,0.6324,-0.4979,9.8335,0.0229,0.0104,0.0012
41.9,0.5718,-0.3513,9.808,-0.0063,0.0067,0.009
41.92,0.2277,-0.3725,9.8451,0.0092,0.001,-0.0089
41.94,0.1305,-0.524,9.7133,0.0175,0.0086,0.0117
41.96,0.2726,-0.5141,9.9227,-0.0143,0.0192,0.0105
41.98,0.2528,-0.3908,9.7225,-0.0368,-0.0281,0.0052
42.0,0.1892,-0.9467,10.0052,0.017,-0.0538,0.0149
42.02,0.4347,-0.3596,9.7802,0.0274,-0.032,0.0259
42.04,0.3276,-0.5465,9.933,0.1469,0.0218,0.0432
42.06,0.3623,-0.7751,9.4126,0.2007,0.0954,0.033
42.08,0.5488,-0.6678,9.2721,0.1901,0.1503,0.0051
42.1,0.5265,-0.6156,9.1836,0.0464,0.0388,-0.0877
42.12,0.1929,-0.5262,8.9153,-0.2748,-0.2504,-0.163
42.14,0.0242,-0.3613,8.9389,-0.6042,-0.4329,-0.2435
42.16,-0.5048,-0.0938,9.2129,-0.8008,-0.2818,-0.2515
42.18,-0.949,-0.0217,11.2774,-0.6624,0.2233,-0.1623
42.2,-0.0706,0.0491,12.8384,-0.1332,0.5806,-0.0286
42.22,0.9843,-0.0949,12.3095,0.4473,0.4201,0.1182
42.24,1.3196,-0.1596,9.9923,0.792,-0.0254,0.2458
42.26,0.8421,-0.7507,9.1643,0.7619,-0.4039,0.2697
42.28,0.7136,-0.4704,8.9521,0.4752,-0.3603,0.1992
42.3,0.2149,-0.5682,9.0784,0.12,-0.1003,0.111
42.32,0.079,-0.6501,9.4564,-0.1194,0.1221,0.047
42.34,0.2427,-0.6304,9.5446,-0.2038,0.1547,-0.04
42.36,0.2359,-0.5166,9.6143,-0.1682,0.062,-0.0417
42.38,0.2806,-0.3781,9.9082,-0.0758,-0.0113,-0.0158
42.4,0.3283,-0.3763,9.9489,-0.0247,-0.033,-0.0095
42.42,0.5673,-0.3575,9.8749,0.0378,-0.027,-0.0018
42.44,0.3309,-0.341,9.7616,0.0247,0.0044,-0.0189
42.46,0.3071,-0.0782,9.6621,-0.012,0.0002,0.0027
42.48,0.7202,-0.3584,9.6612,0.0166,0.0227,0.0027
42.5,0.6177,-0.3489,9.6029,-0.008,0.0028,-0.0041
42.52,0.4445,-0.4565,10.083,0.0127,-0.0383,-0.0272
42.54,0.2106,-0.2516,9.9056,0.0763,-0.0453,-0.0185
42.56,0.5916,-0.1067,9.7027,0.1362,0.0282,-0.044
42.58,0.586,-0.0714,9.5296,0.1994,0.1143,-0.0237
42.6,0.4288,-0.0881,9.4488,0.1675,0.1539,0.0088
42.62,0.4854,0.0006,9.2362,0.0032,0.0191,0.0695
42.64,0.1376,-0.0134,9.1601,-0.3043,-0.2345,0.1771
42.66,-0.1145,-0.1897,9.1284,-0.616,-0.4147,0.2139
42.68,-0.3376,-0.4026,9.6504,-0.7443,-0.1845,0.2358
42.7,-0.4209,-0.4848,11.46,-0.5463,0.2658,0.1572
42.72,0.5365,-0.6419,12.812,-0.0253,0.5682,0.0346
42.74,1.0903,-0.6292,11.31,0.4532,0.3852,-0.1094
42.76,1.3122,-0.2521,10.0179,0.731,-0.0946,-0.2024
42.78,1.1863,-0.3628,9.2194,0.7022,-0.3906,-0.2135
42.8,0.8247,-0.1264,9.0027,0.4065,-0.315,-0.1604
42.82,0.6507,0.0869,9.2178,0.0596,-0.072,-0.0902
42.84,0.2994,0.1328,9.256,-0.1488,0.1213,-0.0238
42.86,0.597,-0.1304,9.4338,-0.1801,0.1276,0.0091
42.88,0.337,0.1948,9.722,-0.1763,0.0393,0.0194
42.9,0.4659,0.3593,9.9244,-0.0256,-0.0329,0.0402
42.92,0.3851,0.0424,9.9606,-0.0015,-0.0517,0.0054
42.94,0.4855,-0.0485,9.9418,0.048,-0.0354,0.0004
42.96,0.5011,-0.114,9.8059,0.0053,0.0088,0.0115
42.98,0.3808,-0.2877,9.9083,0.0412,0.0077,-0.0052
43.0,0.263,-0.1838,9.8265,-0.0123,-0.0031,0.0057
43.02,0.4536,-0.4535,9.868,0.0008,-0.0031,0.004
43.04,0.4859,-0.2405,9.5627,0.0053,0.0106,0.0141
43.06,0.3623,-0.1949,9.6471,0.0144,0.02,0.0008
43.08,0.4757,-0.1935,9.5871,-0.0027,-0.0015,-0.0034
43.1,0.348,-0.5665,9.9909,-0.0407,0.0212,0.0127
43.12,0.3186,-0.397,9.8448,0.0432,0.0046,-0.0003
43.14,0.5471,-0.3622,9.7736,0.0266,-0.0044,-0.0003
43.16,0.2975,-0.2825,9.7847,0.0295,0.0103,0.0079
43.18,0.3816,-0.5145,9.5616,0.0316,0.0192,-0.0102
43.2,0.3826,-0.3436,9.8248,0.0077,0.0203,-0.0022
43.22,0.2859,-0.4151,9.8994,0.0399,-0.01,0.0212
43.24,0.3681,-0.0386,9.704,0.0275,0.0126,0.0051
43.26,0.1683,-0.1681,9.7604,0.0033,-0.0069,-0.0114
43.28,0.2015,-0.4724,9.8713,0.0169,-0.0193,0.0172
43.3,0.3859,-0.2399,9.9152,-0.0016,-0.0063,0.0188
43.32,0.4113,-0.4021,9.6688,0.0188,-0.0036,-0.0168
43.34,0.3734,-0.4671,9.8796,0.0244,0.0026,-0.0157
43.36,0.1327,-0.2254,9.7341,0.0199,-0.0025,0.0144
43.38,0.4014,-0.1979,9.7559,0.0037,0.0109,0.0107
43.4,0.3724,-0.0573,9.757,-0.0134,0.0155,0.0047
43.42,0.3785,-0.1271,9.7812,0.0166,-0.0043,0.0058
43.44,0.4275,-0.4075,9.9434,0.0018,0.0131,-0.0076
43.46,0.6647,0.0016,9.8068,0.0105,-0.0026,-0.0071
43.48,0.4082,-0.2795,9.8183,-0.0077,-0.009,0.0039
43.5,0.3125,-0.2773,9.7159,0.0077,-0.0127,0.0015
43.52,0.4134,-0.2623,9.7191,0.0,-0.0023,0.0041
43.54,0.6431,-0.1803,9.6562,-0.0019,-0.0035,-0.004
43.56,0.2925,-0.2719,9.7621,0.0047,-0.0029,-0.0014
43.58,0.502,-0.0708,9.7731,0.0155,-0.0154,0.0103
43.6,0.2849,-0.2695,9.8085,0.0167,-0.0055,0.0085
43.62,0.2864,-0.2586,9.8141,-0.0081,0.0159,-0.0035
43.64,0.3283,-0.3491,9.8343,0.0036,-0.0063,0.0
43.66,0.496,-0.3064,9.7818,0.003,0.0029,-0.0078
43.68,0.2944,-0.4387,9.815,-0.0026,0.0021,0.0034
43.7,0.4189,-0.3903,9.7255,0.0119,-0.0069,-0.0012
43.72,0.2181,-0.2452,9.8358,-0.0014,-0.0023,0.0023
43.74,0.3962,-0.3181,9.7582,-0.0016,0.0077,0.0032
43.76,0.3624,-0.3798,9.7268,-0.0042,0.0023,0.001
43.78,0.4172,-0.2919,9.8191,-0.0068,-0.0031,-0.0011
43.8,0.4577,-0.2988,9.8659,0.0102,0.0028,-0.0033
43.82,0.377,-0.3202,9.7722,0.0052,-0.0014,0.0013
43.84,0.3812,-0.2832,9.763,0.0062,-0.0033,-0.0004
43.86,0.3763,-0.2725,9.7412,-0.0019,0.007,-0.0
43.88,0.3363,-0.2768,9.7953,-0.0005,-0.0022,-0.0023
43.9,0.3529,-0.2201,9.8045,0.0022,0.0001,-0.0011
43.92,0.3621,-0.2553,9.7938,0.004,-0.0029,0.0012
43.94,0.354,-0.3429,9.7789,-0.0019,0.0004,0.0002
43.96,0.3504,-0.2413,9.7783,0.0005,-0.0014,0.0007
43.98,0.3438,-0.2844,9.7395,0.0012,0.0007,-0.0007
44.0,0.3745,-0.2975,9.8335,0.0008,-0.0,0.0004
44.02,0.3396,-0.2899,9.815,0.0,-0.0,0.0
44.04,0.4007,-0.2993,9.7544,-0.0,0.0,-0.0
44.06,0.3898,-0.3386,9.8794,0.0,-0.0,0.0
44.08,0.2985,-0.2693,9.7626,0.0,-0.0,0.0
44.1,0.2886,-0.2603,9.8639,0.0,-0.0,0.0
44.12,0.325,-0.2683,9.8732,0.0,0.0,-0.0
44.14,0.3498,-0.3636,9.7299,-0.0,-0.0,0.0
44.16,0.3519,-0.328,9.8421,0.0,0.0,-0.0
44.18,0.3466,-0.2833,9.7236,-0.0,0.0,0.0
44.2,0.3392,-0.3129,9.7874,0.0,0.0,0.0
44.22,0.3784,-0.2777,9.7613,0.0,0.0,-0.0
44.24,0.355,-0.2805,9.807,-0.0,0.0,-0.0
44.26,0.3314,-0.2897,9.6975,-0.0,0.0,0.0
44.28,0.3842,-0.2875,9.8283,0.0,-0.0,0.0
44.3,0.3309,-0.2788,9.7905,0.0,-0.0,-0.0
44.32,0.3702,-0.2707,9.7114,-0.0,0.0,-0.0
44.34,0.2815,-0.3136,9.7731,-0.0,-0.0,-0.0
44.36,0.2823,-0.302,9.7771,0.0,-0.0,0.0
44.38,0.2979,-0.2909,9.7403,0.0,0.0,-0.0
44.4,0.3145,-0.2594,9.7311,0.0,0.0,-0.0
44.42,0.3169,-0.2923,9.7968,0.0,-0.0,-0.0
44.44,0.3967,-0.3248,9.7436,0.0,0.0,0.0
44.46,0.3628,-0.3018,9.8325,0.0,-0.0,0.0
44.48,0.3474,-0.2195,9.7919,0.0,0.0,0.0
44.5,0.2706,-0.3708,9.8286,0.0,0.0,-0.0
44.52,0.2485,-0.2318,9.9112,0.0,0.0,-0.0
44.54,0.3766,-0.2052,9.7698,-0.0,0.0,-0.0
44.56,0.2979,-0.2187,9.752,-0.0,0.0,0.0
44.58,0.2999,-0.3215,9.7561,-0.0,-0.0,0.0
44.6,0.3181,-0.2648,9.8128,-0.0,-0.0,-0.0
44.62,0.3064,-0.3745,9.7621,0.0,0.0,0.0
44.64,0.3633,-0.266,9.8266,0.0,0.0,-0.0
44.66,0.3712,-0.2829,9.8188,-0.0,-0.0,-0.0
44.68,0.351,-0.2769,9.7419,0.0,-0.0,0.0
44.7,0.4093,-0.246,9.8041,0.0,-0.0,-0.0
44.72,0.39,-0.3134,9.7622,-0.0,0.0,0.0
44.74,0.3904,-0.3106,9.7557,0.0,0.0,0.0
44.76,0.3194,-0.3211,9.8415,0.0,0.0,0.0
44.78,0.327,-0.2669,9.8072,0.0,-0.0,0.0
44.8,0.3415,-0.2746,9.724,-0.0,-0.0,0.0
44.82,0.3338,-0.3367,9.7972,0.0,0.0,0.0
44.84,0.3194,-0.272,9.8283,-0.0,0.0,-0.0
44.86,0.2851,-0.3109,9.752,0.0,0.0,-0.0
44.88,0.3403,-0.2643,9.7998,0.0,0.0,-0.0
44.9,0.3864,-0.229,9.7225,0.0,-0.0,-0.0
44.92,0.3363,-0.3062,9.7682,0.0,0.0,-0.0
44.94,0.4333,-0.2537,9.8108,0.0,-0.0,0.0
44.96,0.3238,-0.2822,9.8422,0.0,-0.0,-0.0
44.98,0.3936,-0.3257,9.7763,-0.0,-0.0,0.0
