time_s,acc_x,acc_y,acc_z,gyro_x,gyro_y,gyro_z
0.0,0.2744,-0.2602,9.7533,-0.0,0.0,-0.0
0.02,0.2605,-0.2169,9.7664,0.0,-0.0,-0.0
0.04,0.3592,-0.2434,9.8092,-0.0,-0.0,0.0
0.06,0.2992,-0.3007,9.7465,-0.0,0.0,0.0
0.08,0.263,-0.2105,9.7713,-0.0,-0.0,0.0
0.1,0.285,-0.2397,9.7524,0.0,0.0,-0.0
0.12,0.2368,-0.214,9.7255,0.0,-0.0,0.0
0.14,0.198,-0.2847,9.7487,-0.0,0.0,-0.0
0.16,0.2865,-0.2103,9.8236,-0.0,0.0,0.0
0.18,0.2209,-0.2228,9.7398,0.0,0.0,0.0
0.2,0.2721,-0.1616,9.8105,-0.0,-0.0,0.0
0.22,0.2663,-0.2898,9.7445,0.0,-0.0,-0.0
0.24,0.2688,-0.1381,9.7937,0.0,-0.0,-0.0
0.26,0.2849,-0.2348,9.7485,-0.0,0.0,-0.0
0.28,0.288,-0.1877,9.7583,0.0,-0.0,0.0
0.3,0.2946,-0.1906,9.8595,-0.0,0.0,-0.0
0.32,0.2362,-0.1785,9.7542,0.0,0.0,0.0
0.34,0.2905,-0.1472,9.7932,-0.0,0.0,-0.0
0.36,0.3091,-0.2809,9.7776,0.0,-0.0,-0.0
0.38,0.2444,-0.2254,9.7556,0.0,-0.0,0.0
0.4,0.2472,-0.2301,9.7627,0.0,-0.0,-0.0
0.42,0.3223,-0.2873,9.8416,-0.0,-0.0,0.0
0.44,0.263,-0.2406,9.7138,0.0,-0.0,-0.0
0.46,0.1934,-0.2313,9.8454,-0.0,-0.0,0.0
0.48,0.237,-0.215,9.7707,0.0,0.0,-0.0
0.5,0.2998,-0.1828,9.7688,0.0,0.0,-0.0
0.52,0.2549,-0.194,9.7518,-0.0,0.0,0.0
0.54,0.3037,-0.1832,9.7345,0.0,-0.0,-0.0
0.56,0.2595,-0.3083,9.7529,0.0,-0.0,-0.0
0.58,0.2866,-0.2524,9.7195,-0.0,0.0,-0.0
0.6,0.2277,-0.1966,9.7246,-0.0,-0.0,0.0
0.62,0.2514,-0.2635,9.722,-0.0,-0.0,-0.0
0.64,0.2317,-0.1844,9.7722,-0.0,-0.0,-0.0
0.66,0.1926,-0.1725,9.741,0.0,0.0,-0.0
0.68,0.2645,-0.2587,9.7301,-0.0,-0.0,0.0
0.7,0.2335,-0.2548,9.7307,-0.0,0.0,0.0
0.72,0.2909,-0.1766,9.7427,0.0,-0.0,0.0
0.74,0.2793,-0.1825,9.7365,0.0,0.0,0.0
0.76,0.287,-0.307,9.8386,0.0,0.0,-0.0
0.78,0.2428,-0.2243,9.785,0.0,-0.0,0.0
0.8,0.295,-0.2552,9.7662,0.0,-0.0,0.0
0.82,0.2321,-0.1803,9.6733,0.0,0.0,-0.0
0.84,0.3307,-0.1684,9.7353,-0.0,0.0,-0.0
0.86,0.2202,-0.1654,9.7517,0.0,0.0,-0.0
0.88,0.2185,-0.253,9.8008,-0.0,-0.0,0.0
0.9,0.2743,-0.2425,9.8129,0.0,0.0,0.0
0.92,0.2474,-0.256,9.7367,0.0,0.0,0.0
0.94,0.2996,-0.2164,9.7093,0.0,0.0,0.0
0.96,0.2612,-0.2908,9.8036,0.0,0.0,-0.0
0.98,0.2316,-0.2423,9.8332,-0.0,-0.0,0.0
1.0,0.214,-0.2727,9.7273,-0.0,-0.0,0.0
1.02,0.2755,-0.2198,9.7879,-0.0,-0.0,-0.0
1.04,0.2679,-0.2158,9.7076,-0.0,0.0,0.0
1.06,0.2557,-0.2626,9.7353,0.0,0.0,0.0
1.08,0.274,-0.274,9.6767,0.0,-0.0,-0.0
1.1,0.2592,-0.3094,9.8032,-0.0,-0.0,-0.0
1.12,0.2418,-0.2877,9.7367,-0.0,0.0,-0.0
1.14,0.2728,-0.225,9.7645,0.0,-0.0,-0.0
1.16,0.2911,-0.2646,9.7769,0.0,0.0,-0.0
1.18,0.3278,-0.2554,9.8182,-0.0,0.0,-0.0
1.2,0.3314,-0.2418,9.7099,-0.0,-0.0,0.0
1.22,0.2779,-0.1999,9.8099,-0.0,-0.0,-0.0
1.24,0.2908,-0.2193,9.7198,0.0,0.0,-0.0
1.26,0.2901,-0.2272,9.7787,-0.0,-0.0,-0.0
1.28,0.2571,-0.2547,9.7469,0.0,-0.0,0.0
1.3,0.1763,-0.1774,9.7879,0.0,-0.0,-0.0
1.32,0.2604,-0.2667,9.8305,-0.0,0.0,0.0
1.34,0.2721,-0.3112,9.7202,0.0,0.0,-0.0
1.36,0.2863,-0.2165,9.7853,0.0,0.0,0.0
1.38,0.2716,-0.311,9.8016,0.0,-0.0,0.0
1.4,0.2948,-0.2672,9.7463,-0.0,-0.0,-0.0
1.42,0.3082,-0.2505,9.7941,-0.0,-0.0,-0.0
1.44,0.2408,-0.1467,9.7495,0.0,0.0,0.0
1.46,0.2785,-0.2118,9.8158,0.0,0.0,0.0
1.48,0.2913,-0.2011,9.831,-0.0,0.0,-0.0
1.5,0.2543,-0.2164,9.7893,-0.0,0.0,-0.0
1.52,0.2951,-0.292,9.7132,-0.0,-0.0,-0.0
1.54,0.2566,-0.1909,9.8332,0.0,-0.0,-0.0
1.56,0.2588,-0.1812,9.7852,0.0,-0.0,0.0
1.58,0.1984,-0.2113,9.7742,-0.0,-0.0,0.0
1.6,0.2568,-0.2688,9.7664,0.0,0.0,0.0
1.62,0.264,-0.1774,9.7854,0.0,-0.0,0.0
1.64,0.2496,-0.1999,9.7416,-0.0,-0.0,0.0
1.66,0.2354,-0.2775,9.7225,-0.0,-0.0,-0.0
1.68,0.2761,-0.2488,9.7469,-0.0,0.0,0.0
1.7,0.1665,-0.2365,9.7595,0.0,0.0,-0.0
1.72,0.2787,-0.271,9.7409,0.0,0.0,-0.0
1.74,0.2394,-0.1991,9.8474,0.0,0.0,-0.0
1.76,0.1812,-0.2176,9.7567,-0.0,0.0,-0.0
1.78,0.3118,-0.2862,9.7925,-0.0,-0.0,0.0
1.8,0.2584,-0.2596,9.7838,-0.0,-0.0,-0.0
1.82,0.2001,-0.1905,9.8185,0.0,-0.0,0.0
1.84,0.2191,-0.214,9.7593,-0.0,0.0,-0.0
1.86,0.2326,-0.2166,9.8033,0.0,-0.0,-0.0
1.88,0.2915,-0.2776,9.7894,0.0,0.0,0.0
1.9,0.2389,-0.2356,9.7805,0.0,0.0,0.0
1.92,0.2136,-0.181,9.8562,-0.0,0.0,0.0
1.94,0.245,-0.2654,9.7559,0.0,0.0,-0.0
1.96,0.3339,-0.2688,9.6627,0.0,0.0,0.0
1.98,0.2565,-0.3272,9.7817,0.0,-0.0,-0.0
2.0,0.1945,-0.2579,9.7722,-0.0,0.0,-0.0
2.02,0.2422,-0.1647,9.7579,0.0,0.0,-0.0
2.04,0.2128,-0.2358,9.7368,0.0,0.0,-0.0
2.06,0.2044,-0.2629,9.7507,-0.0,0.0,-0.0
2.08,0.3024,-0.1823,9.7134,0.0,0.0,-0.0
2.1,0.2401,-0.2343,9.7436,-0.0,0.0,0.0
2.12,0.2572,-0.2726,9.6605,0.0,0.0,-0.0
2.14,0.334,-0.2699,9.7176,0.0,0.0,0.0
2.16,0.2308,-0.207,9.7483,0.0,-0.0,-0.0
2.18,0.199,-0.3037,9.7625,0.0,0.0,0.0
2.2,0.288,-0.2333,9.8164,-0.0,0.0,-0.0
2.22,0.2761,-0.3123,9.711,-0.0,-0.0,-0.0
2.24,0.2553,-0.2497,9.7744,-0.0,0.0,-0.0
2.26,0.2893,-0.2214,9.7694,-0.0,0.0,-0.0
2.28,0.2269,-0.3329,9.8157,0.0,0.0,-0.0
2.3,0.2413,-0.3221,9.7538,0.0,-0.0,-0.0
2.32,0.2543,-0.2168,9.8003,0.0,-0.0,-0.0
2.34,0.2205,-0.2364,9.7045,-0.0,0.0,-0.0
2.36,0.2873,-0.1524,9.7863,-0.0,0.0,-0.0
2.38,0.2309,-0.2729,9.7888,-0.0,0.0,-0.0
2.4,0.2659,-0.2456,9.8067,0.0,-0.0,-0.0
2.42,0.2885,-0.3103,9.8063,-0.0,-0.0,-0.0
2.44,0.2635,-0.2316,9.8186,-0.0,0.0,0.0
2.46,0.265,-0.2067,9.8004,-0.0,0.0001,0.0
2.48,0.2308,-0.2037,9.7452,-0.0004,0.0004,0.0
2.5,0.2739,-0.2191,9.7592,0.0035,0.0001,0.0006
2.52,0.2573,-0.2567,9.753,0.0018,0.0011,-0.0006
2.54,0.2567,-0.1881,9.7875,-0.0002,0.0003,-0.0
2.56,0.2801,-0.196,9.7634,0.0028,0.0018,-0.0002
2.58,0.2572,-0.2639,9.8218,0.0028,-0.0004,0.0018
2.6,0.1878,-0.3313,9.7975,-0.0072,0.0039,-0.0024
2.62,0.2085,-0.283,9.7944,0.0016,-0.0006,0.003
2.64,0.2534,-0.2273,9.7918,-0.0042,-0.0011,-0.0026
2.66,0.1565,-0.2455,9.7186,-0.0027,-0.0033,-0.0055
2.68,0.3248,-0.2291,9.7809,0.006,0.0048,0.0051
2.7,0.2593,-0.2267,9.8176,-0.0008,-0.0024,0.0026
2.72,0.2866,-0.2712,9.7259,0.0053,-0.0108,0.0006
2.74,0.2766,-0.1817,9.7218,-0.0006,-0.0055,0.0005
2.76,0.1642,-0.161,9.8082,-0.0008,0.0066,-0.0098
2.78,0.4353,-0.2596,9.8662,0.0057,-0.0002,0.0033
2.8,0.1462,-0.3205,9.688,-0.0056,0.0063,-0.0099
2.82,0.1635,-0.2017,9.7568,0.0,0.0005,-0.0033
2.84,0.3603,-0.2508,9.9237,-0.0132,0.0092,0.0006
2.86,0.1131,-0.2281,9.7625,-0.0011,-0.0067,-0.0087
2.88,0.3249,-0.1962,9.7887,0.0059,0.0108,-0.0065
2.9,0.1618,-0.3393,9.6788,0.0079,0.0054,-0.0177
2.92,0.3276,-0.109,9.7942,-0.0145,0.0022,0.0018
2.94,0.2031,-0.1072,9.6113,-0.0081,0.0131,-0.0076
2.96,0.3362,-0.0448,9.7301,-0.014,-0.007,0.0102
2.98,0.1274,-0.0078,9.9115,-0.0029,-0.0001,0.0034
3.0,0.0713,-0.1687,9.7545,-0.0074,-0.0073,0.005
3.02,0.1599,-0.2216,9.9813,-0.0104,-0.0169,0.0023
3.04,0.3631,-0.3618,10.117,0.063,-0.0122,-0.0019
3.06,0.5967,-0.2344,9.733,0.0745,0.0052,0.0455
3.08,0.5286,-0.3359,9.6232,0.1528,0.0481,0.0281
3.1,0.3293,-0.2292,9.5589,0.1853,0.1196,0.0365
3.12,0.2128,-0.1843,9.2446,0.1531,0.0982,-0.0205
3.14,0.3887,-0.3371,9.3748,0.0225,0.0257,-0.0767
3.16,-0.1157,-0.3048,9.0428,-0.2475,-0.2012,-0.1243
3.18,-0.3749,-0.1705,8.991,-0.5722,-0.3416,-0.1508
3.2,-0.6175,0.032,9.1131,-0.7907,-0.2675,-0.2044
3.22,-0.7759,0.035,9.9283,-0.7899,0.0111,-0.1788
3.24,-0.7632,0.1415,11.9228,-0.4503,0.3608,-0.1011
3.26,0.0298,0.0583,12.6004,0.0375,0.5366,0.0104
3.28,1.2646,-0.1269,12.0629,0.5102,0.3213,0.0963
3.3,1.3974,-0.3527,9.8991,0.8316,-0.0383,0.2018
3.32,1.24,-0.0062,8.9216,0.8425,-0.3303,0.1799
3.34,0.6029,-0.4505,8.9613,0.5959,-0.336,0.1795
3.36,0.3069,-0.4419,9.0632,0.2913,-0.1712,0.1254
3.38,0.321,-0.694,9.2093,0.0056,0.0713,0.0645
3.4,0.0351,-0.363,9.3819,-0.1801,0.151,0.0062
3.42,-0.019,-0.4296,9.2778,-0.217,0.1238,-0.0269
3.44,-0.0101,-0.3521,9.7375,-0.1336,0.0359,-0.0247
3.46,0.1224,-0.3533,9.9131,-0.0799,-0.0439,-0.022
3.48,0.0814,-0.494,9.7181,-0.0097,-0.0535,-0.0413
3.5,0.4034,-0.2989,9.9679,-0.0135,-0.0308,-0.0189
3.52,0.6633,-0.4277,9.7706,0.0357,0.0011,0.012
3.54,0.3615,-0.217,9.6316,0.0034,0.0102,0.0076
3.56,0.3863,-0.1465,9.8348,0.0204,-0.0068,-0.002
3.58,0.3849,-0.2204,9.8003,0.0002,0.0295,0.0072
3.6,0.1667,-0.3615,9.8318,-0.0107,0.001,-0.0058
3.62,0.4431,-0.0291,9.7833,0.009,-0.0187,-0.0055
3.64,0.1968,-0.2303,9.8824,0.097,-0.0325,0.0019
3.66,0.379,0.0823,9.8457,0.1031,-0.0432,-0.0477
3.68,0.6718,0.0069,9.7607,0.1835,0.0751,-0.0338
3.7,0.4982,0.1653,9.5941,0.2064,0.1597,-0.0387
3.72,0.6095,0.147,9.2944,0.1871,0.1285,0.0112
3.74,0.5806,-0.0726,9.2894,-0.0324,0.0147,0.0657
3.76,0.236,0.0967,9.0632,-0.3286,-0.2299,0.1192
3.78,0.0606,-0.1321,8.8684,-0.6444,-0.3789,0.1876
3.8,-0.7658,-0.5291,9.2837,-0.8376,-0.2933,0.2065
3.82,-0.8738,-0.555,10.3317,-0.7909,0.0438,0.1738
3.84,-0.6405,-0.2298,12.1698,-0.478,0.3691,0.0965
3.86,0.59,-0.6704,12.0026,0.0725,0.5047,-0.0041
3.88,1.517,-0.5594,11.3607,0.571,0.2998,-0.1272
3.9,1.3173,-0.2647,9.7972,0.8524,-0.0355,-0.202
3.92,1.5813,-0.2128,9.0682,0.8369,-0.3433,-0.1963
3.94,0.5606,-0.1365,9.1643,0.6112,-0.3632,-0.1622
3.96,0.1688,0.1692,8.9738,0.2323,-0.1699,-0.1098
3.98,0.3862,-0.0304,9.352,-0.0221,0.0416,-0.0545
4.0,0.266,0.1094,9.5162,-0.1929,0.1706,-0.0008
4.02,0.0973,-0.126,9.6505,-0.2156,0.096,0.0196
4.04,0.0665,0.0666,9.6233,-0.1623,0.039,0.0234
4.06,0.1845,0.2672,9.5975,-0.0785,-0.0232,0.0254
4.08,0.0441,0.0482,9.9258,-0.0125,-0.0034,0.0193
4.1,0.2831,-0.0749,9.7759,0.0389,-0.0235,0.0177
4.12,0.3795,-0.1929,9.7213,-0.0088,-0.0249,-0.0147
4.14,0.2458,-0.2532,9.7008,0.0344,-0.0045,0.0127
4.16,0.2268,-0.2908,9.9394,0.0053,-0.0125,0.0211
4.18,0.6932,-0.2152,9.6822,0.0085,-0.0315,-0.0034
4.2,0.3941,-0.2432,9.8544,0.0642,-0.0136,0.0128
4.22,0.35,0.0724,9.7468,0.1675,-0.0044,0.0497
4.24,0.8051,-0.1368,9.5269,0.1753,0.0746,0.0214
4.26,0.5096,-0.5326,8.955,0.2173,0.1402,0.0064
4.28,0.4287,-0.369,9.3898,0.131,0.0986,-0.0482
4.3,0.3055,-0.2534,9.0507,-0.0797,-0.0763,-0.0727
4.32,0.3027,-0.2123,8.7827,-0.4018,-0.2602,-0.1649
4.34,-0.0793,-0.4075,8.946,-0.6896,-0.3551,-0.1745
4.36,-0.7439,0.2419,9.2846,-0.8217,-0.1853,-0.1658
4.38,-0.5007,0.1088,10.9355,-0.6444,0.1166,-0.1463
4.4,-0.3978,0.1829,12.0428,-0.2689,0.4404,-0.0648
4.42,0.5667,0.1535,12.1634,0.2015,0.4832,0.065
4.44,1.6951,0.5325,11.154,0.6515,0.1744,0.1515
4.46,1.5739,0.1824,9.5765,0.8166,-0.1429,0.2046
4.48,0.8666,0.1592,8.9623,0.7162,-0.3576,0.1982
4.5,0.3711,-0.2586,8.8431,0.4354,-0.2733,0.147
4.52,0.4341,-0.1904,9.3365,0.0849,-0.0875,0.0781
4.54,0.0836,-0.6907,9.0587,-0.1214,0.0626,0.0392
4.56,-0.0105,-0.5694,9.4029,-0.1878,0.1565,0.0148
4.58,-0.1878,-0.3925,9.7664,-0.1836,0.1063,-0.0516
4.6,0.4266,-0.2806,9.8597,-0.1629,0.0283,-0.0229
4.62,0.2339,-0.2384,9.8671,-0.0222,-0.0375,-0.0078
4.64,-0.0093,-0.0092,9.9018,0.0098,-0.0566,-0.0297
4.66,0.1002,-0.1748,9.9546,0.012,-0.0049,-0.021
4.68,0.1521,0.0561,9.7923,0.0104,-0.0112,0.0043
4.7,0.0884,-0.6461,9.923,0.0495,0.0017,-0.0142
4.72,0.0997,-0.3565,9.9916,0.035,-0.0367,-0.0219
4.74,0.395,-0.2202,9.9685,0.1091,-0.006,-0.0357
4.76,0.5015,-0.3196,9.6387,0.2018,0.0483,-0.0276
4.78,0.2903,-0.4816,9.4051,0.248,0.1095,-0.0099
4.8,0.0085,-0.2,9.3389,0.2578,0.1599,0.0128
4.82,0.0679,0.2985,9.2733,0.0636,0.0252,0.0538
4.84,-0.017,-0.346,9.067,-0.2445,-0.1826,0.1483
4.86,0.1036,-0.301,8.8749,-0.6358,-0.3996,0.1893
4.88,-0.782,-0.1895,8.9572,-0.8868,-0.3469,0.2293
4.9,-1.2407,-0.2565,10.0395,-0.877,-0.0547,0.1891
4.92,-0.774,-0.5248,12.2358,-0.5462,0.386,0.1224
4.94,0.3102,-0.6065,12.5872,-0.0091,0.5649,0.015
4.96,1.1809,-0.7263,11.5588,0.5393,0.4291,-0.1105
4.98,1.6334,-0.6627,10.3603,0.871,0.0071,-0.2049
5.0,1.2923,-0.3825,9.1588,0.9178,-0.3632,-0.2132
5.02,0.4372,-0.4353,8.8825,0.7416,-0.3896,-0.1838
5.04,0.2461,-0.0541,8.759,0.3069,-0.2314,-0.1375
5.06,0.2135,0.0243,9.2167,-0.0091,0.0128,-0.0593
5.08,0.1461,-0.3786,9.3754,-0.2109,0.1595,-0.0017
5.1,-0.1543,-0.2677,9.4185,-0.2319,0.1158,0.0247
5.12,-0.1278,-0.6209,9.5254,-0.1789,0.0737,0.0581
5.14,0.0636,-0.2107,9.7894,-0.1037,-0.0284,0.0312
5.16,0.2245,-0.2004,9.9514,-0.034,-0.0372,0.0273
5.18,-0.0171,-0.4075,10.0973,0.0146,-0.0343,0.0018
5.2,0.2151,-0.3173,9.8284,0.0361,0.0307,0.003
5.22,0.0216,-0.5603,9.7456,0.0057,0.0044,-0.0006
5.24,0.2078,-0.4529,9.9649,0.0335,-0.0119,0.0005
5.26,0.2715,-0.3813,10.0907,-0.019,-0.0246,-0.0025
5.28,0.5695,-0.3088,9.977,0.0773,-0.0256,0.0324
5.3,0.5232,-0.6224,10.1509,0.1042,0.0305,0.0233
5.32,0.6643,-0.3779,9.7658,0.2025,0.0654,0.0302
5.34,0.5234,-0.3494,9.2318,0.2719,0.1416,0.0131
5.36,0.1763,-0.247,9.1988,0.2113,0.1658,-0.0222
5.38,0.1947,-0.4135,9.2396,0.001,0.0216,-0.0676
5.4,0.3481,-0.4562,8.8769,-0.3287,-0.251,-0.1413
5.42,-0.0121,-0.3191,8.7074,-0.6449,-0.4151,-0.1937
5.44,-1.0556,-0.0169,8.8273,-0.927,-0.3308,-0.2421
5.46,-0.922,0.2218,10.3569,-0.9148,-0.0175,-0.1873
5.48,-0.6623,0.1679,12.5159,-0.4821,0.4196,-0.0969
5.5,0.3341,0.1488,12.8415,0.0382,0.5833,0.0041
5.52,1.6051,0.5322,12.118,0.593,0.3468,0.1109
5.54,1.7904,0.1904,9.7398,0.9226,-0.0443,0.225
5.56,1.3551,0.0805,8.9833,0.9384,-0.3503,0.2372
5.58,0.439,0.045,8.9807,0.646,-0.3916,0.1936
5.6,0.4956,-0.0772,8.7744,0.2831,-0.1698,0.1481
5.62,0.1243,-0.2797,9.1625,-0.0293,0.0504,0.0689
5.64,0.2598,-0.2429,9.2173,-0.1973,0.1288,0.0103
5.66,0.248,-0.4849,9.5039,-0.2413,0.1535,-0.0175
5.68,0.2122,-0.3107,9.7357,-0.158,0.0613,-0.0164
5.7,0.0893,-0.3776,10.0013,-0.0767,-0.0326,-0.0222
5.72,0.5655,-0.116,9.7726,-0.061,-0.0154,-0.0279
5.74,0.59,-0.17,9.8158,0.0187,-0.0113,-0.0106
5.76,0.7227,-0.1823,10.171,0.0543,-0.019,0.0231
5.78,0.3234,-0.0979,9.9494,0.0218,-0.0039,-0.0089
5.8,0.7181,-0.2396,9.6083,0.0149,0.0121,0.0009
5.82,0.4142,-0.0461,9.9367,0.0337,-0.0215,-0.0077
5.84,0.0879,0.1628,9.8247,0.0754,-0.0266,-0.0219
5.86,0.3984,-0.0561,9.7951,0.1168,-0.0127,-0.0271
5.88,0.6177,-0.0578,9.6139,0.2005,0.0635,-0.0119
5.9,0.6069,0.1745,9.7006,0.2181,0.0819,-0.0173
5.92,0.2294,-0.037,9.479,0.1977,0.1243,0.0175
5.94,0.4081,0.0524,9.3331,0.0412,0.0048,0.0666
5.96,0.2139,0.0652,9.1787,-0.3272,-0.2205,0.1365
5.98,0.2269,0.0577,9.1139,-0.5976,-0.3496,0.1688
6.0,-0.6406,0.0111,9.0132,-0.794,-0.2634,0.1956
6.02,-0.6857,-0.1136,10.5647,-0.73,0.0456,0.1797
6.04,-0.6947,-0.3779,11.3559,-0.42,0.3624,0.0697
6.06,0.5881,-0.3014,12.4552,0.0548,0.4776,-0.0173
6.08,1.445,-0.3534,11.6616,0.5591,0.2947,-0.1164
6.1,1.488,-0.4022,9.7226,0.8283,-0.0768,-0.1792
6.12,0.6817,-0.1861,9.1693,0.7824,-0.3267,-0.1957
6.14,0.5568,0.1001,8.9561,0.5361,-0.326,-0.1816
6.16,0.1605,-0.1653,9.0276,0.2152,-0.1496,-0.1106
6.18,0.2632,-0.1588,9.1719,-0.0459,0.0286,-0.0516
6.2,0.4352,-0.1,9.3527,-0.2074,0.1352,0.0191
6.22,0.3673,-0.0453,9.6071,-0.216,0.127,0.0338
6.24,0.2178,0.1998,9.6339,-0.1734,0.0315,0.0258
6.26,0.3159,-0.0731,9.9313,-0.0838,-0.0225,0.0199
6.28,0.3594,-0.167,9.8444,0.0028,-0.0137,0.0006
6.3,0.4767,-0.1991,9.948,0.0016,-0.0148,-0.0
6.32,0.1943,-0.0589,9.9619,-0.028,-0.0103,0.004
6.34,0.2266,-0.1111,9.9286,-0.0041,-0.0451,0.0141
6.36,0.3373,-0.4018,9.7825,-0.0032,0.0029,0.0015
6.38,0.3462,-0.116,10.2036,0.072,-0.0032,0.0232
6.4,-0.0512,-0.3654,9.7454,0.1414,-0.025,0.0143
6.42,0.1409,-0.3077,9.5406,0.1854,0.0753,0.057
6.44,0.577,-0.3404,9.4809,0.266,0.1684,0.0321
6.46,0.1959,-0.5171,9.3413,0.1963,0.1474,-0.0237
6.48,0.1926,-0.6134,9.0821,0.0045,-0.0371,-0.0799
6.5,0.08,-0.7052,8.9318,-0.3295,-0.2638,-0.1317
6.52,-0.2967,-0.2078,8.7326,-0.6615,-0.3724,-0.1814
6.54,-1.0817,-0.3164,9.3635,-0.8529,-0.2528,-0.2134
6.56,-1.0092,0.0529,10.2342,-0.7741,0.0272,-0.1704
6.58,-0.4951,-0.07,12.1116,-0.4377,0.3845,-0.0902
6.6,-0.0401,0.0441,12.7571,0.0783,0.5384,0.025
6.62,1.4262,-0.0988,11.9871,0.5736,0.3074,0.1025
6.64,1.5535,-0.3381,9.7058,0.8777,-0.0449,0.1955
6.66,1.0969,-0.0293,9.1815,0.8548,-0.3269,0.202
6.68,0.4846,-0.0419,8.7767,0.5839,-0.3484,0.1777
6.7,-0.1031,-0.6436,9.0876,0.1789,-0.1494,0.14
6.72,0.1837,-0.5694,9.4346,-0.0801,0.0093,0.0519
6.74,-0.3628,-0.4366,9.1526,-0.2146,0.1413,0.0035
6.76,0.2101,-0.3543,9.3984,-0.2325,0.1106,-0.0164
6.78,0.1053,-0.282,9.372,-0.1952,0.0392,-0.0143
6.8,0.1671,-0.4726,9.8925,-0.0922,-0.0199,-0.0275
6.82,-0.0106,-0.6298,9.9643,0.0256,-0.0063,-0.0158
6.84,0.149,-0.3636,9.7458,-0.0003,-0.0066,-0.0188
6.86,0.2827,-0.4625,9.8538,-0.003,0.0346,-0.0022
6.88,0.193,-0.5074,9.8043,0.0023,-0.007,-0.0142
6.9,0.3506,-0.6206,9.6592,0.0039,0.0016,0.0066
6.92,0.0979,-0.0737,9.916,0.0048,-0.0592,-0.0174
6.94,0.2885,-0.2531,9.8358,0.0781,-0.0306,-0.0393
6.96,0.5399,-0.2744,9.6291,0.135,0.0254,-0.0148
6.98,0.3745,-0.2893,9.5573,0.2089,0.0754,-0.0113
7.0,0.2281,-0.1594,9.4818,0.2471,0.1797,-0.0085
7.02,0.2591,-0.2028,9.274,0.1361,0.0867,0.0297
7.04,0.3043,-0.3307,9.2007,-0.1388,-0.1071,0.0977
7.06,-0.1669,-0.3029,8.8749,-0.4547,-0.3051,0.1512
7.08,-0.5988,-0.4059,8.7896,-0.6843,-0.3584,0.192
7.1,-0.6532,-0.5475,9.7038,-0.8407,-0.1539,0.1908
7.12,-1.1406,-0.7373,11.0119,-0.6131,0.1668,0.136
7.14,-0.3893,-0.7008,12.1318,-0.2351,0.4706,0.0671
7.16,0.8748,-0.8226,12.4347,0.3058,0.4501,-0.054
7.18,1.5001,-0.4203,10.7559,0.7114,0.1747,-0.1435
7.2,1.4664,-0.7047,9.6396,0.8392,-0.2154,-0.2029
7.22,0.8518,-0.0826,8.6983,0.7313,-0.3812,-0.1778
7.24,0.5948,-0.0107,9.0606,0.452,-0.2873,-0.1405
7.26,0.4876,-0.4377,9.1691,0.073,-0.0769,-0.1108
7.28,-0.2275,-0.1148,9.3315,-0.1486,0.1291,-0.0132
7.3,0.2139,-0.4278,9.3305,-0.2334,0.1248,0.0006
7.32,0.4368,-0.2159,9.3482,-0.2315,0.0972,0.026
7.34,0.1583,-0.1445,9.6263,-0.1649,0.0315,0.0289
7.36,0.271,-0.4611,10.0746,-0.0699,-0.0307,0.0274
7.38,0.272,-0.0829,9.7307,-0.0173,-0.0041,0.026
7.4,0.3908,-0.2093,9.9814,0.0137,0.0177,0.0151
7.42,0.369,-0.2293,9.9369,0.0343,-0.0094,0.03
7.44,0.607,-0.3482,9.6619,0.0293,-0.0479,0.0108
7.46,0.5596,0.0109,9.8688,0.1291,-0.0028,0.0178
7.48,0.6274,0.0365,9.7916,0.1882,0.0371,0.0129
7.5,0.341,0.1646,9.3822,0.2287,0.0991,0.0123
7.52,0.1582,-0.2365,9.4865,0.2565,0.172,-0.027
7.54,0.3015,-0.2474,9.115,0.0476,0.0224,-0.0665
7.56,0.376,-0.2878,8.7482,-0.2515,-0.194,-0.1411
7.58,-0.1463,-0.3265,8.9549,-0.6656,-0.4149,-0.1956
7.6,-0.6871,0.0049,9.0093,-0.8741,-0.3719,-0.2307
7.62,-1.046,0.2423,9.8304,-0.8937,-0.0279,-0.2207
7.64,-0.7989,0.2152,11.8313,-0.5915,0.3735,-0.1361
7.66,0.2898,-0.0008,13.1336,-0.0373,0.5495,-0.029
7.68,1.3186,0.2265,11.8194,0.5208,0.4257,0.1233
7.7,1.8989,0.3721,10.3726,0.8901,0.0239,0.1903
7.72,1.4557,0.4922,9.0952,0.9342,-0.3292,0.2334
7.74,0.9761,-0.3431,8.8464,0.7336,-0.4132,0.1933
7.76,0.2336,-0.3098,9.0036,0.3523,-0.2299,0.1387
7.78,0.2539,-0.0689,8.8698,-0.0264,-0.0127,0.0879
7.8,0.3987,-0.1788,9.246,-0.1818,0.1395,0.0336
7.82,0.1225,0.068,9.4635,-0.251,0.1455,-0.0176
7.84,-0.3581,0.0517,9.6951,-0.1643,0.0713,-0.0182
7.86,0.0009,-0.0523,9.8558,-0.1258,-0.0432,-0.0239
7.88,0.2415,0.1918,9.9516,-0.0403,-0.0113,-0.027
7.9,0.2317,-0.0348,10.1797,-0.0008,-0.0144,-0.0142
7.92,0.3475,-0.243,10.0172,0.0164,-0.0046,-0.0194
7.94,0.2559,0.3408,9.8455,0.0014,0.0018,0.0071
7.96,0.3294,-0.1363,9.9289,-0.0193,-0.0206,-0.0084
7.98,0.2579,0.1125,9.7596,-0.0062,-0.0348,-0.0236
8.0,0.2524,-0.1335,9.8759,0.0782,-0.0357,-0.0275
8.02,0.7537,-0.0823,9.7106,0.2029,-0.007,-0.0196
8.04,0.3326,0.0195,9.7297,0.2455,0.0631,-0.0358
8.06,0.2519,-0.1348,9.5082,0.3159,0.2123,-0.0206
8.08,0.2237,0.0224,9.0235,0.1918,0.1665,0.0461
8.1,0.3413,0.0842,8.6701,-0.0236,-0.0264,0.1257
8.12,-0.0242,0.413,8.9869,-0.4279,-0.3465,0.1751
8.14,-0.2627,0.0128,8.9136,-0.8301,-0.505,0.2343
8.16,-0.9818,-0.4114,8.7725,-1.1195,-0.3393,0.2527
8.18,-1.3981,-0.3785,10.6202,-0.9921,0.0837,0.208
8.2,-0.5977,-0.7669,13.0426,-0.5355,0.5165,0.1126
8.22,0.7693,-0.6569,13.1326,0.1342,0.6671,-0.0274
8.24,1.7584,-0.7686,11.7173,0.8046,0.3784,-0.1492
8.26,1.6135,-0.3922,9.5822,1.1176,-0.1355,-0.2518
8.28,1.2257,-0.124,8.8757,1.0712,-0.4543,-0.2642
8.3,0.5862,-0.1389,8.7257,0.6877,-0.4421,-0.2383
8.32,0.2723,0.165,9.0025,0.2765,-0.2261,-0.1403
8.34,0.2962,-0.3997,9.3033,-0.1018,0.0388,-0.0725
8.36,0.144,-0.33,9.3038,-0.2901,0.1653,-0.005
8.38,0.052,-0.1904,9.2756,-0.2769,0.1869,0.0292
8.4,-0.2635,-0.2037,9.6973,-0.2598,0.0234,0.0369
8.42,0.1461,-0.1539,9.7122,-0.0908,-0.0184,0.0348
8.44,0.2616,-0.4392,9.8397,-0.0056,-0.0461,0.0076
8.46,0.492,-0.2384,9.8124,0.0338,-0.0282,-0.0034
8.48,-0.146,-0.3341,9.7398,0.0318,-0.0086,-0.0234
8.5,0.0683,-0.1676,9.6007,0.0047,-0.0017,0.0268
8.52,-0.0376,-0.0563,9.7204,0.0308,0.011,0.0219
8.54,0.1318,-0.3823,9.7047,0.0084,0.0285,-0.0101
8.56,0.2003,-0.5254,9.7303,0.0139,-0.0247,-0.0065
8.58,0.1909,-0.1984,9.7228,0.037,-0.0471,0.0688
8.6,0.1482,-0.2598,9.8896,0.0782,-0.0249,0.0069
8.62,0.2559,-0.6516,9.5816,0.1833,0.0391,0.0343
8.64,0.2499,-0.4298,9.6726,0.256,0.1256,0.0288
8.66,0.0911,-0.3621,9.2761,0.2376,0.1493,-0.0205
8.68,0.0588,-0.7392,9.0851,0.0353,0.0465,-0.0786
8.7,0.2817,-0.4225,8.9574,-0.267,-0.1952,-0.1379
8.72,-0.4047,-0.4366,9.2239,-0.5921,-0.3626,-0.1753
8.74,-0.732,-0.3196,8.9229,-0.7924,-0.3133,-0.1898
8.76,-1.0596,-0.2982,10.0684,-0.7995,0.0022,-0.1685
8.78,-0.918,-0.0653,11.75,-0.4999,0.3612,-0.1098
8.8,0.3502,0.0115,13.0658,-0.0024,0.5115,0.0276
8.82,1.3157,-0.2155,11.5834,0.5128,0.3285,0.1113
8.84,1.3026,-0.2465,10.092,0.8145,-0.0181,0.1527
8.86,1.0651,-0.5051,8.9839,0.7768,-0.2882,0.1939
8.88,0.489,-0.5472,8.9838,0.5672,-0.3718,0.1812
8.9,0.4351,-0.2454,9.1022,0.2858,-0.1989,0.1271
8.92,0.3285,0.0109,9.2696,-0.043,0.0199,0.0561
8.94,0.572,-0.7014,9.7008,-0.1707,0.1331,-0.0143
8.96,0.0492,-0.5085,9.356,-0.2001,0.1126,-0.0092
8.98,-0.0486,-0.5577,9.7524,-0.1774,0.0607,-0.0164
9.0,0.06,-0.3228,9.9095,-0.0695,0.0031,-0.0332
9.02,0.0709,-0.3248,9.9687,-0.0022,0.0024,-0.0124
9.04,0.1586,-0.2479,9.9721,0.0288,-0.0143,0.0115
9.06,0.2305,-0.1874,10.1149,0.0246,0.0148,-0.0198
9.08,-0.0794,-0.4125,9.8405,-0.0021,-0.0137,-0.0122
9.1,0.1568,-0.099,9.828,0.0115,-0.0008,-0.0098
9.12,0.197,-0.2548,9.591,0.0475,-0.0258,-0.0056
9.14,0.4546,-0.3438,9.6179,0.094,-0.0207,-0.0349
9.16,0.1785,0.0531,9.5656,0.1011,0.0486,-0.0253
9.18,0.2563,-0.2228,9.3241,0.2156,0.1134,-0.0314
9.2,0.0997,-0.0464,9.362,0.1653,0.1428,0.041
9.22,-0.024,-0.1294,9.3054,0.0764,0.0126,0.0504
9.24,0.2568,-0.0475,9.2044,-0.1288,-0.1458,0.0732
9.26,-0.1991,-0.0026,9.3039,-0.4627,-0.2871,0.1433
9.28,-0.222,-0.4879,9.0729,-0.6786,-0.2789,0.177
9.3,-0.5447,-0.2722,9.7554,-0.6981,-0.0241,0.1489
9.32,-0.572,-0.1041,10.9869,-0.4505,0.275,0.0951
9.34,0.0494,-0.5182,12.567,-0.0464,0.4201,0.012
9.36,1.3198,-0.5895,11.4346,0.4269,0.345,-0.0737
9.38,0.8774,-0.1909,10.011,0.6481,0.0266,-0.1409
9.4,1.2337,-0.2523,9.2323,0.6884,-0.194,-0.1958
9.42,0.6378,0.0894,9.1021,0.5921,-0.3098,-0.1579
9.44,0.4618,-0.2363,9.2729,0.2785,-0.1945,-0.1194
9.46,0.4883,-0.0928,9.2146,0.036,-0.0057,-0.056
9.48,0.3665,-0.0674,9.1462,-0.1423,0.1395,-0.0168
9.5,0.0685,0.0458,9.4529,-0.2095,0.0992,0.0061
9.52,0.3523,-0.0278,9.646,-0.1799,0.0474,-0.0021
9.54,-0.0553,0.0017,9.8715,-0.0744,0.0207,0.0354
9.56,0.3272,0.0236,9.5335,-0.055,-0.0191,0.0123
9.58,0.434,-0.1095,9.9873,0.0007,-0.0102,0.0125
9.6,0.4929,-0.2142,9.7914,0.0532,-0.0046,0.0098
9.62,0.1982,-0.2401,9.5476,0.0011,-0.0122,0.0008
9.64,0.0656,0.0326,9.7118,-0.0318,0.0081,0.022
9.66,0.3744,-0.2105,9.8948,-0.0157,0.0027,0.0113
9.68,-0.0575,-0.1033,9.6927,-0.0151,-0.0106,0.0021
9.7,0.2572,-0.0842,9.9426,-0.0125,-0.0443,0.0102
9.72,0.3297,-0.108,9.8831,0.0491,-0.0153,0.0093
9.74,0.4847,-0.2077,9.8357,0.1209,-0.0043,0.0433
9.76,0.5432,-0.2102,9.5759,0.2589,0.0518,0.079
9.78,0.472,-0.0884,9.4157,0.3342,0.1607,-0.0116
9.8,0.368,-0.202,9.1672,0.2332,0.1725,-0.017
9.82,0.4371,-0.1114,8.8335,-0.0265,-0.0184,-0.0934
9.84,0.2545,-0.5765,8.912,-0.3984,-0.2935,-0.1982
9.86,-0.2065,-0.2673,8.6473,-0.8718,-0.5103,-0.2704
9.88,-0.8303,0.3147,8.8666,-1.1221,-0.3544,-0.2719
9.9,-1.2724,0.2501,10.275,-1.0349,0.0446,-0.2145
9.92,-1.0878,0.2324,12.2444,-0.5572,0.5145,-0.1373
9.94,0.7058,0.1599,13.5549,0.1077,0.6761,0.0173
9.96,1.9268,0.3521,12.4603,0.7613,0.4076,0.1705
9.98,2.0296,0.6095,9.6988,1.0709,-0.0904,0.2225
10.0,1.3078,0.0981,8.6758,1.1077,-0.434,0.2826
10.02,0.4597,-0.3058,8.6244,0.7661,-0.474,0.2451
10.04,0.3981,-0.4588,9.0654,0.3239,-0.1956,0.1439
10.06,0.4786,-0.1552,8.9751,-0.0636,0.0354,0.0924
10.08,0.4839,-0.2295,9.3097,-0.2716,0.1881,0.017
10.1,-0.1821,-0.3455,9.4415,-0.2396,0.154,-0.02
10.12,0.026,-0.2166,9.7373,-0.1924,0.0633,-0.0257
10.14,0.0585,-0.4177,9.7767,-0.1075,-0.0387,-0.0418
10.16,0.0835,-0.2501,10.0872,-0.0104,-0.0257,-0.0293
10.18,0.4815,-0.3031,9.6614,0.0035,-0.0298,-0.0289
10.2,0.2342,-0.2994,9.5579,0.0446,0.0137,-0.0314
10.22,0.0647,-0.3471,9.7296,0.005,0.0408,0.0149
10.24,0.2112,-0.4938,9.5735,0.0236,-0.0382,-0.0096
10.26,-0.0326,-0.1241,9.8469,0.0004,-0.0293,-0.0266
10.28,0.1356,0.0486,9.8094,0.025,-0.0216,-0.0148
10.3,0.0195,-0.1301,10.0834,0.1113,0.0197,-0.0199
10.32,0.4464,-0.1718,9.7653,0.1707,0.0133,-0.0372
10.34,0.007,-0.5146,9.696,0.2202,0.0946,-0.038
10.36,0.4955,-0.051,9.3024,0.2637,0.1496,-0.0131
10.38,0.154,-0.1605,9.1393,0.1408,0.129,0.0138
10.4,0.3416,-0.1061,9.0409,-0.0589,-0.0669,0.0949
10.42,0.1575,-0.2304,8.9636,-0.4338,-0.2891,0.1639
10.44,-0.4116,-0.0248,8.9467,-0.7406,-0.4283,0.2328
10.46,-1.0147,-0.3982,9.274,-0.9027,-0.2562,0.2203
10.48,-1.44,-0.3407,10.5502,-0.7686,0.1253,0.1595
10.5,-0.6648,-1.0578,12.7328,-0.356,0.4751,0.0854
10.52,0.4088,-1.0193,12.7339,0.2034,0.528,-0.0384
10.54,1.0916,-0.6915,11.0712,0.7241,0.243,-0.1537
10.56,1.3106,-1.0231,9.7707,0.9464,-0.1327,-0.2189
10.58,0.8868,-0.4842,8.8628,0.8593,-0.402,-0.2294
10.6,0.4051,-0.44,8.9939,0.5534,-0.3273,-0.195
10.62,0.1838,-0.2481,9.0403,0.2013,-0.1389,-0.1172
10.64,0.1559,-0.0801,9.1545,-0.0777,0.0722,-0.0304
10.66,0.0525,-0.3436,9.4982,-0.2303,0.1768,-0.0025
10.68,-0.0918,0.1637,9.4169,-0.2056,0.1046,-0.0067
10.7,0.1887,-0.5545,9.703,-0.1307,0.0198,0.0358
10.72,-0.1435,-0.2806,9.8129,-0.0732,-0.0628,0.0257
10.74,0.234,-0.3194,10.0415,-0.0218,-0.0004,0.023
10.76,0.4178,-0.341,9.888,0.0409,0.0136,-0.0086
10.78,0.0218,-0.5323,9.9927,-0.0101,-0.0092,0.0019
10.8,0.2682,0.1637,9.7371,0.01,-0.0003,0.0162
10.82,0.3575,-0.3669,9.7632,-0.0205,-0.0561,0.0209
10.84,0.1293,-0.3931,9.8025,-0.007,-0.0359,0.0113
10.86,0.5881,-0.5119,10.2829,0.0745,-0.0237,0.0442
10.88,0.2939,-0.6176,9.6088,0.1463,0.0213,0.0244
10.9,0.42,-0.6067,9.409,0.2159,0.0888,0.0154
10.92,0.2767,-0.4393,9.4145,0.3158,0.1731,0.0119
10.94,0.3811,-0.5776,9.2562,0.2251,0.1372,-0.0368
10.96,0.1461,-0.3977,9.1503,-0.0895,-0.0311,-0.103
10.98,0.0568,-0.5674,8.8282,-0.4753,-0.3087,-0.174
11.0,-0.4708,-0.129,8.7734,-0.8481,-0.4713,-0.2307
11.02,-1.1414,-0.2063,9.0574,-1.0441,-0.2712,-0.249
11.04,-1.0284,0.1263,11.0253,-0.8596,0.1463,-0.1932
11.06,-0.6804,-0.0384,12.7887,-0.4237,0.5212,-0.0686
11.08,0.6555,0.0404,13.0565,0.2474,0.5698,0.0604
11.1,2.011,0.1457,11.8146,0.7824,0.297,0.142
11.12,1.5416,-0.2083,9.7126,1.0138,-0.149,0.2428
11.14,0.9526,-0.2745,8.8094,0.98,-0.3939,0.2612
11.16,0.5532,-0.059,8.7841,0.5783,-0.4061,0.2204
11.18,0.3559,-0.1947,8.944,0.2191,-0.1599,0.1172
11.2,0.3217,-0.7273,9.0561,-0.1092,0.0962,0.092
11.22,0.3394,-0.363,9.3327,-0.2781,0.1869,0.0073
11.24,-0.2092,-0.4034,9.4463,-0.2629,0.1024,-0.0567
11.26,0.2081,-0.4066,9.6694,-0.1872,0.0483,-0.0431
11.28,0.0123,0.0101,9.878,-0.0951,-0.0293,-0.0287
11.3,0.2944,-0.297,10.0505,-0.04,-0.0291,-0.0101
11.32,0.2286,-0.0364,9.9751,0.0062,-0.036,0.0107
11.34,0.4054,-0.128,9.6401,0.0038,-0.0081,-0.0158
11.36,0.4943,-0.0171,10.0142,0.0259,0.0013,0.0029
11.38,0.2621,-0.1168,9.5942,0.03,0.0206,-0.0123
11.4,0.0975,-0.0743,9.8448,-0.0015,-0.0039,0.0218
11.42,0.1495,-0.2311,9.8428,-0.0288,-0.0032,-0.01
11.44,0.2889,0.095,9.9768,-0.0083,-0.0009,-0.0209
11.46,0.1219,-0.2051,10.0521,0.0503,-0.0464,-0.0107
11.48,0.2072,-0.0366,9.8356,0.0943,-0.0474,-0.0446
11.5,0.8403,0.0808,9.779,0.1661,0.0205,-0.027
11.52,0.3156,-0.0425,9.4709,0.2601,0.121,-0.0349
11.54,0.4244,-0.0089,9.3167,0.267,0.129,0.0085
11.56,0.3813,0.2571,9.3233,0.1156,0.0966,0.0376
11.58,0.2355,-0.2749,9.0183,-0.1575,-0.1183,0.1273
11.6,-0.0103,0.006,8.8201,-0.5646,-0.3409,0.2147
11.62,-0.5191,0.0528,8.7152,-0.8559,-0.4459,0.2218
11.64,-1.0277,-0.5313,9.3684,-0.9862,-0.1502,0.2306
11.66,-1.0218,-0.8635,11.4215,-0.7431,0.2737,0.1717
11.68,-0.4849,-0.0938,12.5549,-0.2364,0.5409,0.0298
11.7,1.1565,-0.3944,12.7045,0.3899,0.5053,-0.0802
11.72,1.8209,-0.3306,11.2695,0.8394,0.1331,-0.1723
11.74,1.7684,-0.1501,8.9845,1.0108,-0.2894,-0.2398
11.76,1.0319,0.0141,8.8284,0.899,-0.4148,-0.2261
11.78,0.6635,-0.109,9.1191,0.4649,-0.336,-0.1648
11.8,-0.1923,0.068,9.1897,0.1004,-0.0923,-0.0976
11.82,0.2937,-0.0731,9.0487,-0.1514,0.1151,-0.0557
11.84,0.2452,-0.1139,9.4153,-0.2673,0.1549,0.0315
11.86,-0.0565,-0.258,9.4807,-0.2142,0.1114,0.0215
11.88,0.0928,-0.2153,9.5646,-0.1696,0.0611,0.0272
11.9,0.1871,0.0184,10.0708,-0.0599,-0.0137,0.0429
11.92,-0.0582,-0.3261,9.8191,0.0201,-0.0367,-0.0058
11.94,0.159,-0.1693,10.0222,0.06,-0.0411,-0.006
11.96,0.4382,-0.1431,9.7075,0.0176,0.0245,0.0105
11.98,-0.0051,-0.14,9.6151,-0.012,0.0022,0.0131
12.0,0.4985,-0.2987,9.8812,-0.0628,-0.0413,0.0126
12.02,0.1314,-0.4922,10.1344,-0.0074,0.0057,-0.009
12.04,0.2738,0.0185,9.9628,0.0266,-0.008,0.026
12.06,0.5623,-0.3032,9.9407,0.0709,-0.023,0.0154
12.08,0.0421,-0.2851,9.776,0.1321,0.0542,0.0273
12.1,0.5682,-0.5932,9.2281,0.251,0.1004,0.0218
12.12,0.2498,-0.4473,9.4114,0.2537,0.1612,0.0062
12.14,0.3574,-0.382,9.01,0.1563,0.0894,-0.0639
12.16,0.1059,-0.4812,9.0676,-0.068,-0.105,-0.0878
12.18,-0.2153,-0.2513,8.9409,-0.4919,-0.3013,-0.1595
12.2,-0.7852,-0.204,8.8808,-0.789,-0.3543,-0.2068
12.22,-1.0451,-0.3259,9.45,-0.892,-0.1708,-0.1864
12.24,-1.2919,-0.1841,10.8615,-0.71,0.2104,-0.1324
12.26,-0.3106,-0.1725,12.7662,-0.285,0.4924,-0.0643
12.28,0.7634,-0.117,12.2232,0.2746,0.4725,0.0607
12.3,1.2615,-0.1816,10.9385,0.7092,0.1942,0.1595
12.32,1.3726,-0.5037,9.4395,0.8735,-0.1935,0.1882
12.34,0.54,-0.5055,8.8062,0.7946,-0.4239,0.2055
12.36,0.3519,-0.6672,9.112,0.4612,-0.3032,0.163
12.38,0.5422,-0.5352,9.2613,0.0999,-0.0889,0.091
12.4,0.2107,-0.308,9.3395,-0.1253,0.1326,0.0098
12.42,0.0843,-0.7328,9.3569,-0.236,0.1559,-0.0034
12.44,0.1205,-0.5827,9.6741,-0.1817,0.0825,-0.0248
12.46,0.0908,-0.2604,9.768,-0.1479,0.034,-0.0273
12.48,0.1812,-0.4139,9.8515,-0.0362,-0.0384,-0.0274
12.5,0.2112,-0.1929,9.8582,0.0555,-0.0325,-0.0153
12.52,0.2369,-0.4665,9.6905,0.0333,-0.0429,-0.0301
12.54,0.5279,-0.5449,9.8685,0.0316,-0.0089,-0.0134
12.56,0.1619,-0.43,9.8023,0.0143,0.0035,-0.0142
12.58,-0.1226,-0.6684,9.7307,-0.0126,-0.0126,-0.0059
12.6,0.3619,-0.302,9.8986,0.0079,-0.0387,-0.017
12.62,0.2144,-0.1915,9.9167,0.0672,0.0024,-0.0219
12.64,0.3389,-0.6583,9.9407,0.157,0.017,-0.0444
12.66,0.5291,-0.516,9.6333,0.2271,0.0703,-0.039
12.68,0.0782,-0.4926,9.525,0.2249,0.1598,-0.0136
12.7,0.2049,-0.0556,9.0608,0.1286,0.072,0.0336
12.72,0.0923,-0.2836,9.1682,-0.1291,-0.104,0.1085
12.74,0.09,-0.0681,8.8624,-0.4603,-0.3351,0.1651
12.76,-0.5017,-0.4435,8.9618,-0.7865,-0.3442,0.1663
12.78,-1.0498,-0.7917,9.453,-0.8277,-0.1736,0.1779
12.8,-0.7628,-0.5167,11.247,-0.6972,0.22,0.1548
12.82,-0.3375,-0.2622,12.3905,-0.2345,0.4696,0.0386
12.84,0.3248,-0.5139,12.1852,0.2892,0.4488,-0.0729
12.86,1.5654,-0.668,10.9214,0.7398,0.1501,-0.1688
12.88,1.663,-0.5745,9.1312,0.8746,-0.193,-0.1867
12.9,0.735,-0.3351,8.9309,0.7138,-0.3694,-0.1816
12.92,0.5991,-0.0256,8.999,0.4455,-0.294,-0.1476
12.94,0.5169,0.0132,9.311,0.081,-0.0603,-0.0841
12.96,0.182,0.0347,9.003,-0.1331,0.1043,-0.0477
12.98,0.3107,-0.2255,9.3525,-0.2175,0.1448,0.0055
13.0,-0.0589,0.0392,9.416,-0.2174,0.1018,0.0087
13.02,-0.0477,-0.2546,9.7626,-0.131,0.0226,0.0482
13.04,0.2858,-0.0042,10.0162,-0.1073,-0.0053,0.0233
13.06,0.1712,-0.2244,10.1567,-0.0046,-0.0696,0.0079
13.08,0.013,-0.0437,9.9437,0.0158,-0.0406,0.0103
13.1,0.6873,-0.4667,10.0952,0.0895,-0.0199,0.0225
13.12,0.2413,-0.1851,9.7231,0.1428,0.0087,0.0319
13.14,0.7094,-0.1645,9.5416,0.2631,0.0856,0.0187
13.16,0.428,-0.3654,9.2902,0.2785,0.1614,0.0209
13.18,0.5283,0.1028,9.2237,0.2328,0.1611,-0.0124
13.2,0.0434,-0.3567,8.8534,0.0105,-0.0052,-0.075
13.22,-0.0034,-0.4564,8.7849,-0.4187,-0.2902,-0.1929
13.24,-0.3228,0.236,8.6666,-0.8321,-0.484,-0.2398
13.26,-1.0018,0.1808,8.6439,-1.1135,-0.429,-0.3036
13.28,-1.0428,0.1202,10.4168,-1.0764,0.0068,-0.2119
13.3,-0.746,0.3828,12.5336,-0.6253,0.4775,-0.1195
13.32,0.1047,0.4153,13.3529,0.0402,0.6725,-0.0012
13.34,1.9941,0.1765,12.6971,0.7414,0.4034,0.1381
13.36,1.6287,0.2019,9.9249,1.1048,-0.0743,0.2643
13.38,1.7288,0.0361,8.6115,1.0798,-0.4233,0.2841
13.4,0.5999,-0.1596,8.738,0.7753,-0.4674,0.2442
13.42,0.5025,-0.2859,8.8299,0.3539,-0.2321,0.1454
13.44,0.3321,-0.1604,8.9405,0.0082,0.0327,0.0607
13.46,0.2393,-0.0473,9.2552,-0.2605,0.182,0.0256
13.48,0.0015,-0.3742,9.3763,-0.2578,0.1656,-0.0094
13.5,-0.3837,-0.2442,9.5414,-0.1925,0.0713,-0.0226
13.52,0.2915,-0.5295,9.7878,-0.1234,-0.0406,-0.0355
13.54,0.0808,-0.1424,10.185,-0.0581,-0.0239,-0.0427
13.56,0.3013,0.2251,9.9252,-0.0407,-0.0034,-0.0046
13.58,0.1772,-0.3039,9.9184,0.0453,-0.0008,0.0149
13.6,0.213,-0.2042,9.8869,-0.004,-0.0001,0.0088
13.62,0.3625,-0.2356,9.8778,0.0067,-0.0135,0.0037
13.64,0.4112,-0.2399,10.0086,0.0119,-0.0533,-0.0055
13.66,0.268,-0.2202,10.0786,0.1052,-0.0119,-0.0442
13.68,0.5172,-0.1257,9.7402,0.2277,0.0278,-0.041
13.7,0.6291,-0.0783,9.5786,0.237,0.1328,-0.0265
13.72,0.3354,0.2145,9.0419,0.2065,0.1364,0.0033
13.74,0.5968,-0.053,9.0239,0.0375,0.0319,0.0727
13.76,-0.018,-0.0175,8.9935,-0.2356,-0.1557,0.1033
13.78,-0.244,-0.3598,9.0074,-0.5896,-0.3875,0.2038
13.8,-0.3862,-0.4336,9.223,-0.8436,-0.3279,0.2407
13.82,-0.9158,-0.3404,9.6842,-0.8291,-0.0202,0.1926
13.84,-0.4523,-0.4889,11.5152,-0.5854,0.3461,0.1364
13.86,0.2655,-0.7905,12.5646,-0.0033,0.5262,0.0389
13.88,1.2588,-0.5669,12.0554,0.4994,0.3964,-0.0781
13.9,1.7721,-0.8155,10.2982,0.8107,0.0142,-0.176
13.92,1.2674,-0.5338,8.8844,0.9244,-0.3106,-0.2311
13.94,0.6114,-0.2091,9.1353,0.6601,-0.3568,-0.1643
13.96,0.4517,-0.4414,9.0301,0.3456,-0.2561,-0.122
13.98,0.0367,-0.3293,8.9405,0.0487,0.0017,-0.0705
14.0,0.1757,0.0299,9.3271,-0.1661,0.1389,-0.0215
14.02,-0.0146,-0.1109,9.3335,-0.2519,0.1296,0.0017
14.04,-0.2306,-0.2129,9.3113,-0.1961,0.0723,0.0194
14.06,0.4414,-0.5167,9.9907,-0.0956,-0.0041,0.0353
14.08,-0.0666,-0.4434,9.7132,-0.0345,-0.0484,0.0104
14.1,0.26,-0.5607,9.8171,-0.0202,-0.0087,0.0119
14.12,-0.1274,-0.2551,9.8643,-0.0294,-0.0097,0.0202
14.14,0.2892,-0.7724,9.8866,-0.0302,-0.0169,0.0056
14.16,0.0408,-0.627,9.6898,0.0083,-0.0287,0.0201
14.18,0.2657,-0.4043,10.0258,0.0298,-0.0243,0.0265
14.2,0.5813,-0.5234,10.0382,0.0678,-0.0157,0.0343
14.22,0.6821,-0.5046,9.5434,0.1624,0.0249,0.0383
14.24,0.7008,-0.4957,9.6263,0.2622,0.1326,0.0082
14.26,0.0563,-0.6321,9.4185,0.299,0.186,0.0157
14.28,-0.0267,-0.5831,9.0816,0.1264,0.1411,-0.0597
14.3,0.0033,-0.7768,9.1828,-0.1456,-0.1102,-0.1029
14.32,0.1351,-0.2763,9.1121,-0.5831,-0.3636,-0.165
14.34,-0.6494,-0.5531,8.6053,-0.9266,-0.4614,-0.2299
14.36,-1.0544,-0.4248,9.4378,-1.0425,-0.247,-0.2424
14.38,-1.019,-0.23,11.5813,-0.8254,0.2316,-0.1613
14.4,-0.509,-0.2257,13.0445,-0.2679,0.5988,-0.0571
14.42,0.91,-0.2056,13.1639,0.3685,0.5536,0.0706
14.44,1.5389,-0.3972,11.1355,0.8189,0.2216,0.18
14.46,1.2197,-0.3084,9.3348,1.057,-0.2232,0.2374
14.48,1.0566,-0.6329,8.837,0.8882,-0.4523,0.2389
14.5,0.5084,-0.3814,9.141,0.5107,-0.342,0.1769
14.52,0.1404,-0.2963,8.8024,0.1158,-0.0798,0.0872
14.54,0.4289,-0.7804,8.9854,-0.1266,0.0935,0.0595
14.56,-0.172,-0.6317,9.1258,-0.2936,0.1962,-0.0055
14.58,0.0528,-0.3786,9.3124,-0.2324,0.0905,-0.0021
14.6,0.504,-0.4604,9.2225,-0.1057,0.0143,-0.0239
14.62,0.1418,-0.6007,10.1088,-0.1299,-0.0538,-0.0214
14.64,0.1804,-0.5276,9.9847,-0.0006,0.0031,-0.0069
14.66,0.189,-0.1172,9.711,0.0132,-0.0301,-0.031
14.68,0.4086,-0.2167,10.1722,0.0605,-0.0328,-0.0204
14.7,0.3996,-0.525,9.9066,0.1034,-0.0453,-0.021
14.72,0.3279,-0.0388,9.6298,0.1865,0.0549,-0.0445
14.74,0.4385,-0.3186,9.72,0.2567,0.1769,-0.045
14.76,0.5909,0.0353,9.4888,0.257,0.1699,-0.0057
14.78,0.384,-0.1439,9.0388,0.0972,0.071,0.0414
14.8,0.3099,0.0425,9.0085,-0.214,-0.1778,0.1237
14.82,0.1236,-0.0597,8.9001,-0.6129,-0.3944,0.1917
14.84,-0.6712,-0.5888,8.8071,-0.9552,-0.4362,0.2321
14.86,-1.2384,-0.5339,9.5438,-1.0334,-0.1408,0.249
14.88,-1.1274,-1.0513,11.4334,-0.7805,0.3102,0.1499
14.9,-0.1458,-0.7914,12.9955,-0.203,0.6218,0.0503
14.92,1.506,-0.5708,13.0623,0.4181,0.5078,-0.0764
14.94,1.4406,-0.2994,10.5576,0.8923,0.1276,-0.1965
14.96,1.6762,-0.1273,9.3288,1.0373,-0.2986,-0.231
14.98,0.7361,-0.0286,8.8761,0.8785,-0.459,-0.2409
15.0,0.547,-0.0869,9.1467,0.4508,-0.335,-0.1696
15.02,0.5343,0.1542,9.0749,0.0747,-0.0771,-0.124
15.04,0.3928,0.2031,9.2658,-0.1854,0.1139,-0.0306
15.06,0.1161,0.1019,9.2745,-0.2782,0.1684,-0.0197
15.08,0.2759,0.126,9.5172,-0.2517,0.1053,0.033
15.1,0.0842,-0.1594,9.843,-0.1336,0.0181,0.0077
15.12,0.3134,0.2468,10.0477,-0.0472,-0.0166,0.0182
15.14,0.0058,0.0097,9.8828,-0.0134,-0.0567,0.0063
15.16,0.4207,-0.1343,9.8515,0.003,-0.0077,0.0169
15.18,0.2091,-0.1195,9.8457,0.0006,0.0358,0.0213
15.2,0.556,-0.3702,9.8199,-0.0124,0.0045,0.0045
15.22,0.119,0.1824,9.6696,-0.0024,-0.0201,0.0061
15.24,0.0381,-0.1985,9.9498,0.018,0.009,0.0075
15.26,0.2077,-0.2909,10.0024,0.0334,-0.0531,0.0151
15.28,0.7019,-0.012,10.0314,0.0477,-0.0304,0.0451
15.3,0.6175,-0.248,9.772,0.1435,0.0126,0.0235
15.32,0.5141,-0.0999,9.5211,0.1932,0.1179,0.0186
15.34,0.3409,-0.4304,9.3214,0.2034,0.1771,-0.0022
15.36,0.3379,-0.1699,8.9709,0.1236,0.0853,-0.0336
15.38,-0.1277,-0.4836,8.9185,-0.114,-0.1139,-0.0981
15.4,-0.0475,-0.2532,8.7198,-0.4532,-0.315,-0.1684
15.42,0.0516,0.0407,8.9659,-0.7731,-0.3647,-0.1971
15.44,-0.8533,-0.2722,9.2019,-0.8922,-0.1849,-0.2014
15.46,-1.1199,0.2943,11.2026,-0.7093,0.1868,-0.1664
15.48,-0.0971,0.4949,13.108,-0.2956,0.5144,-0.0574
15.5,0.4171,-0.215,11.8112,0.2693,0.4903,0.0733
15.52,2.1206,0.109,11.748,0.6925,0.1715,0.1676
15.54,1.2086,0.0241,8.8452,0.8816,-0.1845,0.1908
15.56,0.8683,-0.3867,8.4683,0.7824,-0.3819,0.2174
15.58,0.8237,0.0705,9.1074,0.4402,-0.3012,0.1694
15.6,0.5642,0.1559,9.399,0.1048,-0.0975,0.1149
15.62,0.4741,-0.1812,9.1952,-0.1116,0.1099,0.0509
15.64,0.1046,0.0791,9.3004,-0.2502,0.1452,-0.0185
15.66,0.1154,-0.1136,9.6409,-0.2152,0.1194,-0.0263
15.68,0.1905,-0.1375,10.093,-0.1592,0.0125,-0.019
15.7,-0.1133,-0.4552,9.5376,-0.0694,-0.027,-0.0527
15.72,0.347,-0.5428,9.8453,0.0188,-0.0242,-0.0198
15.74,0.2571,0.0129,9.8132,0.0442,-0.0078,-0.0194
15.76,0.0183,-0.1757,9.6572,0.0255,0.0061,0.0036
15.78,0.4934,-0.6978,9.6527,-0.0478,-0.0038,0.003
15.8,0.5122,-0.43,9.8601,0.0137,0.0004,0.0032
15.82,0.2372,-0.1914,9.8616,-0.0048,-0.0437,0.0087
15.84,0.3256,-0.3646,9.7238,0.031,-0.0285,-0.0047
15.86,0.4671,-0.257,9.9507,0.0653,-0.0177,0.0008
15.88,0.4702,-0.4137,9.8458,0.1868,0.047,-0.0152
15.9,0.289,-0.2744,9.1604,0.2578,0.1677,-0.0033
15.92,0.3772,-0.087,9.3131,0.2261,0.1437,-0.0144
15.94,0.0113,-0.5133,9.3577,0.0765,0.036,0.0641
15.96,0.2319,-0.249,8.9196,-0.2775,-0.154,0.1338
15.98,-0.0011,-0.2979,8.8755,-0.6649,-0.4323,0.2119
16.0,-0.7705,-0.2161,8.7015,-0.9523,-0.4275,0.2438
16.02,-1.1956,-0.8873,9.792,-1.0007,-0.0659,0.2461
16.04,-1.2829,-0.851,11.2619,-0.655,0.3403,0.142
16.06,0.2325,-0.753,13.0649,-0.056,0.5963,-0.0132
16.08,1.3292,-0.9898,12.6888,0.5119,0.487,-0.1029
16.1,1.414,-0.5779,10.0813,0.952,0.0512,-0.2083
16.12,1.4633,-0.4716,8.948,0.9886,-0.3261,-0.2278
16.14,0.7864,-0.2504,8.7515,0.7704,-0.4373,-0.1987
16.16,0.3397,-0.2595,8.8211,0.3423,-0.2717,-0.1489
16.18,0.106,-0.3538,9.0287,0.0153,-0.0238,-0.0743
16.2,0.3961,-0.762,9.5126,-0.2115,0.1478,-0.0
16.22,-0.0664,-0.1684,9.699,-0.2691,0.1351,0.0168
16.24,0.0278,-0.5258,9.4111,-0.2176,0.0849,0.035
16.26,0.063,-0.4766,9.8133,-0.118,-0.0095,0.0316
16.28,-0.068,-0.4333,9.9741,-0.0839,-0.0268,0.0399
16.3,0.3731,-0.5219,10.0632,0.0098,-0.0215,0.0172
16.32,0.3518,-0.3299,9.9103,0.0051,-0.0433,0.0231
16.34,0.1279,-0.1194,9.6457,0.0148,0.0048,0.0111
16.36,0.1139,-0.3441,9.9429,-0.0078,-0.0161,-0.0135
16.38,0.4695,-0.5272,10.1323,0.0404,-0.0361,0.0146
16.4,0.0348,-0.4562,9.9153,0.0679,-0.0786,0.0143
16.42,0.1161,-0.6249,9.9924,0.1801,-0.0173,0.0334
16.44,0.0754,-0.4302,9.4991,0.2425,0.0752,0.0549
16.46,0.2368,-0.5615,9.1869,0.2674,0.1491,-0.0028
16.48,0.5416,-0.3232,9.1958,0.2207,0.1222,-0.0336
16.5,0.344,-0.4399,8.845,-0.0501,-0.0177,-0.0855
16.52,0.1561,-0.2267,8.7889,-0.4341,-0.3151,-0.172
16.54,-0.3598,-0.4657,8.6396,-0.8158,-0.4591,-0.2232
16.56,-0.8735,-0.3031,9.1539,-1.0298,-0.292,-0.2639
16.58,-1.325,0.0284,10.2844,-0.9084,0.0854,-0.1991
16.6,-0.8271,0.1501,12.7342,-0.4688,0.4898,-0.1098
16.62,0.6205,-0.0883,13.8495,0.1796,0.6098,0.0282
16.64,1.5556,0.1675,11.6148,0.6917,0.3319,0.1623
16.66,1.5956,0.1183,9.6401,1.032,-0.1132,0.2202
16.68,1.475,-0.0476,8.7018,0.9336,-0.4056,0.2501
16.7,0.4352,-0.2938,8.6094,0.6341,-0.4234,0.1997
16.72,0.2011,-0.2711,8.8828,0.2798,-0.1675,0.13
16.74,0.4568,-0.6391,9.1907,-0.0897,0.078,0.0612
16.76,0.3996,-0.39,9.1445,-0.2482,0.1472,0.0093
16.78,0.1466,-0.2248,9.4331,-0.273,0.1265,-0.0464
16.8,-0.0748,-0.4371,9.4976,-0.1857,0.0163,-0.0414
16.82,0.0823,-0.2892,9.6297,-0.0698,-0.0173,-0.0527
16.84,0.17,-0.2494,10.0134,-0.0479,-0.0261,-0.0261
16.86,-0.0947,-0.097,10.2295,-0.027,-0.0441,-0.0363
16.88,0.5235,0.3364,9.9591,-0.0032,-0.0326,-0.0249
16.9,0.478,-0.3036,9.9187,0.0156,-0.0168,-0.0469
16.92,0.525,0.1693,9.6283,0.1156,0.0065,-0.0364
16.94,0.5389,-0.1356,9.4975,0.1655,0.0317,0.0122
16.96,0.2338,-0.0957,9.3992,0.2495,0.1111,-0.0259
16.98,0.3976,0.0149,9.4044,0.2522,0.1352,-0.0127
17.0,0.4049,0.1654,8.9299,0.1204,0.0976,0.0229
17.02,0.3413,0.1058,9.1212,-0.1876,-0.123,0.0898
17.04,0.3251,-0.1311,8.9322,-0.5046,-0.3426,0.1736
17.06,-0.1616,-0.0895,8.9315,-0.8661,-0.4329,0.2401
17.08,-0.9794,-0.0374,9.3782,-0.9796,-0.1748,0.1949
17.1,-0.9161,-0.0564,11.3806,-0.7055,0.2381,0.1581
17.12,-0.0626,-0.1207,13.0147,-0.2839,0.5177,0.0553
17.14,1.0843,-0.223,12.2631,0.316,0.5088,-0.0831
17.16,1.7904,-0.4656,11.098,0.7906,0.2044,-0.1866
17.18,1.3814,-0.262,9.3697,0.9405,-0.2472,-0.23
17.2,0.8511,-0.2028,8.986,0.8078,-0.4107,-0.2303
17.22,0.6315,0.0423,8.9869,0.4402,-0.2963,-0.1678
17.24,0.4587,-0.1203,9.197,0.115,-0.0749,-0.1143
17.26,0.2172,0.2259,9.0378,-0.1499,0.1335,-0.0395
17.28,0.5707,-0.0821,9.3447,-0.2393,0.1569,-0.0147
17.3,0.1623,0.0048,9.7286,-0.2002,0.1096,0.0297
17.32,0.1545,-0.344,9.4105,-0.1554,0.023,0.0238
17.34,0.3564,-0.1957,10.1227,-0.1113,-0.0209,0.0148
17.36,0.4152,0.1176,9.848,-0.0247,-0.0272,0.0007
17.38,0.5134,-0.1304,9.6592,0.0577,-0.0037,0.022
17.4,0.4672,-0.2624,9.8894,0.0013,0.004,-0.0125
17.42,0.8384,-0.0501,10.0214,0.007,-0.0288,0.0278
17.44,0.4117,-0.1761,9.9341,0.0241,-0.0336,0.0302
17.46,0.436,-0.0761,10.1572,0.009,-0.0539,0.0248
17.48,0.6745,-0.1452,9.6158,0.1362,-0.0082,0.016
17.5,0.4699,-0.0086,9.8536,0.2152,0.0935,0.0318
17.52,0.7695,-0.2,9.5534,0.2346,0.1681,0.0167
17.54,0.4636,-0.5039,9.1976,0.1663,0.1405,-0.0115
17.56,0.2565,-0.162,9.3809,-0.0324,-0.035,-0.0807
17.58,0.1534,-0.2562,9.0645,-0.3937,-0.2463,-0.1667
17.6,-0.1299,-0.2888,9.0824,-0.7427,-0.3956,-0.1779
17.62,-0.7216,-0.1426,9.1457,-0.8978,-0.2924,-0.2218
17.64,-1.1,0.0553,10.6788,-0.8208,0.1168,-0.1678
17.66,-0.5284,0.1823,12.4499,-0.4215,0.4451,-0.0803
17.68,0.4964,0.0126,12.5049,0.1738,0.5196,0.0297
17.7,1.5336,-0.1541,11.7373,0.5945,0.2789,0.1229
17.72,1.6755,-0.1721,9.7729,0.9032,-0.152,0.1965
17.74,1.1099,-0.3811,9.1399,0.8232,-0.36,0.1972
17.76,0.232,-0.1739,8.7999,0.5762,-0.355,0.1755
17.78,0.4517,-0.5164,9.1725,0.2261,-0.1716,0.1273
17.8,0.2121,-0.6224,8.8077,-0.0765,0.0932,0.034
17.82,0.356,-0.7919,9.2797,-0.201,0.1543,0.0156
17.84,0.0116,-0.5807,9.6346,-0.2505,0.1035,-0.0095
17.86,-0.2795,-0.4656,9.6283,-0.1574,0.0534,-0.0483
17.88,0.048,-0.3724,10.0406,-0.0895,-0.0402,-0.0308
17.9,0.1873,-0.2111,9.7984,-0.0462,-0.0276,-0.0139
17.92,0.5227,-0.5775,9.9109,-0.0136,-0.0113,0.0001
17.94,0.05,-0.6219,9.86,-0.0011,0.0516,0.0027
17.96,0.4061,-0.3409,9.8058,-0.0456,-0.0272,-0.0122
17.98,-0.0819,-0.8482,9.9848,-0.0206,0.0334,0.0004
18.0,0.0159,-0.4773,10.0403,0.0009,-0.0345,-0.0176
18.02,0.4443,-0.3657,10.2478,0.0898,0.0018,-0.0325
18.04,0.3102,-0.4668,9.859,0.0981,-0.0038,-0.032
18.06,0.8172,-0.5342,9.5109,0.1995,0.0874,-0.0433
18.08,0.512,-0.3417,9.3897,0.1684,0.1633,-0.0184
18.1,0.3076,-0.2515,9.2928,0.1817,0.0797,0.0337
18.12,0.3377,-0.2966,9.3334,-0.1137,-0.0665,0.1213
18.14,-0.1322,-0.4485,8.9048,-0.4389,-0.2937,0.1292
18.16,-0.5382,-0.7211,9.1727,-0.6868,-0.3963,0.1674
18.18,-0.7527,-0.2923,9.4069,-0.8,-0.169,0.1798
18.2,-0.7584,-0.8549,10.9565,-0.6565,0.1672,0.1192
18.22,-0.5285,-0.5222,11.8057,-0.2732,0.4299,0.0652
18.24,0.8338,-0.7514,12.502,0.2062,0.4109,-0.0296
18.26,1.4279,-0.6891,10.5833,0.6179,0.17,-0.1296
18.28,1.4699,-0.3547,9.6395,0.8159,-0.167,-0.1961
18.3,0.7964,-0.114,9.2779,0.7109,-0.341,-0.1776
18.32,0.334,-0.3462,9.102,0.4441,-0.3189,-0.1431
18.34,0.3339,-0.0223,9.2086,0.1215,-0.0889,-0.1004
18.36,0.3287,-0.2628,9.1011,-0.128,0.0603,-0.0243
18.38,0.4429,-0.3053,9.4456,-0.2326,0.1219,0.0186
18.4,0.2016,-0.0638,9.2598,-0.1826,0.0832,0.0096
18.42,-0.0341,-0.5822,9.8489,-0.1474,0.0432,0.0417
18.44,0.2998,-0.3441,9.9955,-0.071,-0.0367,0.0179
18.46,0.332,-0.6181,9.8771,-0.0472,-0.0118,0.0287
18.48,0.4852,-0.2174,9.817,0.0105,0.0162,-0.0074
18.5,0.5134,-0.1938,9.8919,0.0347,-0.0081,-0.0029
18.52,0.677,-0.1036,9.8317,-0.0228,0.007,-0.0026
18.54,0.3852,-0.579,9.8481,-0.0452,0.0109,0.0393
18.56,0.2789,0.0068,9.9101,-0.0007,-0.0129,0.0465
18.58,0.5823,-0.454,10.0514,0.1025,-0.0309,0.0269
18.6,0.5902,-0.322,9.795,0.1377,0.0263,0.0336
18.62,0.3736,-0.0748,9.5749,0.2234,0.1265,0.009
18.64,0.3787,-0.2835,9.1365,0.2703,0.169,-0.0216
18.66,0.3975,-0.589,9.3263,0.1309,0.096,-0.0524
18.68,0.4593,-0.4883,8.9022,-0.1359,-0.1025,-0.1151
18.7,0.0375,-0.2551,8.7404,-0.5418,-0.3541,-0.1934
18.72,-0.2241,-0.3467,8.6669,-0.9057,-0.4142,-0.2381
18.74,-1.0186,-0.0774,9.3476,-1.0168,-0.1881,-0.2304
18.76,-1.3853,-0.1043,10.9125,-0.8003,0.2145,-0.1559
18.78,-0.138,0.6315,12.9611,-0.3067,0.5738,-0.0676
18.8,1.0935,0.0157,13.2363,0.3342,0.5182,0.0715
18.82,1.704,0.0154,10.7112,0.8282,0.184,0.206
18.84,1.813,-0.1185,9.2337,0.9898,-0.2477,0.2186
18.86,0.9855,-0.1687,8.9579,0.8701,-0.4214,0.2308
18.88,0.2895,0.0919,8.7031,0.5153,-0.3161,0.1879
18.9,0.4537,-0.4941,9.1272,0.1206,-0.0933,0.1035
18.92,0.3389,-0.0137,9.3357,-0.1555,0.0958,0.0508
18.94,0.2186,-0.2882,9.2313,-0.2408,0.1553,-0.0322
18.96,0.0982,0.0723,9.3398,-0.2333,0.0799,-0.0386
18.98,0.3673,-0.3511,9.6319,-0.1441,0.0389,-0.0448
19.0,0.59,0.1633,9.7436,-0.0532,-0.0168,-0.0164
19.02,0.353,0.1662,9.8562,-0.0137,-0.025,0.0024
19.04,0.2777,-0.0635,9.7851,0.0017,-0.0114,0.0103
19.06,0.6757,-0.0562,9.8186,0.0139,0.016,0.0083
19.08,0.2329,0.0477,9.8406,0.0046,-0.0032,-0.0017
19.1,0.1552,-0.0511,9.9108,0.0188,-0.0038,-0.0026
19.12,0.4914,-0.2821,9.8133,0.0147,-0.0203,0.0089
19.14,0.5983,-0.1031,10.0039,0.0219,-0.029,-0.0056
19.16,0.3648,0.2122,9.8757,0.057,-0.0297,0.0015
19.18,0.6724,-0.3136,9.6887,0.1697,0.0906,-0.0449
19.2,0.3694,-0.0766,9.4964,0.2585,0.1301,-0.0248
19.22,0.3825,0.0342,9.5098,0.1898,0.1409,0.0063
19.24,0.0781,-0.2064,9.2087,0.0166,-0.0148,0.0602
19.26,0.3215,-0.1037,9.096,-0.2869,-0.2158,0.1154
19.28,-0.1654,-0.1979,9.0918,-0.6097,-0.3394,0.1725
19.3,-0.4745,-0.3312,9.1678,-0.7798,-0.302,0.2113
19.32,-0.7754,-0.3586,9.7577,-0.7663,0.0077,0.1475
19.34,-0.508,-0.6397,11.796,-0.4801,0.3386,0.0832
19.36,0.4225,-0.3946,12.5,0.0588,0.5056,-0.0067
19.38,0.9941,-0.7555,11.2599,0.5065,0.2953,-0.1211
19.4,1.6173,-0.547,9.9502,0.7838,-0.0515,-0.184
19.42,1.0909,-0.2309,9.0715,0.7657,-0.284,-0.1892
19.44,0.6764,0.1648,9.0612,0.5463,-0.3182,-0.155
19.46,0.2341,-0.2284,9.1586,0.1896,-0.1514,-0.1004
19.48,0.1682,-0.264,9.2263,-0.0458,-0.0069,-0.0462
19.5,0.1609,-0.0626,9.2409,-0.2067,0.1302,-0.0226
19.52,0.4713,0.0342,9.6936,-0.2476,0.1054,0.0288
19.54,0.2288,-0.3225,9.7659,-0.1757,0.071,0.0336
19.56,0.2852,-0.1875,9.8325,-0.0901,-0.0035,0.0259
19.58,0.3464,-0.4049,9.8134,-0.008,-0.0282,0.0225
19.6,0.3679,-0.4308,9.9155,0.0228,-0.0396,0.0012
19.62,0.2529,-0.4527,9.6653,0.0151,0.0003,0.0207
19.64,0.3008,-0.4787,9.7475,0.0204,-0.0075,-0.0044
19.66,0.4563,-0.4109,9.549,0.0143,0.0122,-0.0008
19.68,0.0725,-0.5382,9.8677,-0.0358,-0.0136,0.0179
19.7,0.2783,-0.5956,9.7204,-0.0247,-0.0411,-0.0019
19.72,0.3425,-0.4845,9.7513,0.0124,0.006,0.0094
19.74,0.1508,-0.5472,9.9966,0.0583,0.0093,0.055
19.76,0.5242,-0.499,9.9869,0.165,0.0159,0.0189
19.78,0.6151,-0.23,9.5941,0.2034,0.095,0.0066
19.8,0.2804,-0.5611,9.4852,0.1652,0.1135,-0.0134
19.82,0.393,-0.5525,9.3426,0.0154,0.0288,-0.0567
19.84,0.0244,-0.3669,9.1453,-0.2171,-0.1601,-0.1062
19.86,-0.2019,-0.2431,9.0137,-0.4636,-0.285,-0.1501
19.88,-0.6807,-0.2947,9.2383,-0.7209,-0.2601,-0.1656
19.9,-1.0328,-0.3589,10.0647,-0.6915,-0.0385,-0.158
19.92,-0.7982,-0.02,10.8744,-0.4405,0.2678,-0.0884
19.94,-0.0334,-0.0525,12.5062,-0.0119,0.4184,-0.0068
19.96,0.9044,-0.0791,11.6725,0.3701,0.3084,0.0757
19.98,1.446,-0.1594,9.8674,0.631,-0.0032,0.1583
20.0,1.1666,-0.651,9.0764,0.6821,-0.2367,0.1586
20.02,0.308,-0.5095,8.7623,0.5063,-0.304,0.1539
20.04,0.3694,-0.5916,9.0878,0.265,-0.193,0.1029
20.06,0.0665,-0.454,9.4882,-0.0261,0.0043,0.0623
20.08,0.4327,-0.7161,9.3789,-0.1333,0.0923,0.05
20.1,0.1646,-0.3628,9.3893,-0.1979,0.1062,-0.0301
20.12,-0.0234,-0.4891,9.432,-0.1581,0.0563,-0.0301
20.14,0.2129,-0.5013,9.7086,-0.0721,-0.0155,-0.0086
20.16,0.4555,-0.5512,9.8771,-0.003,-0.0348,0.0023
20.18,0.235,-0.1042,9.8045,-0.0153,-0.0171,-0.0168
20.2,0.2292,-0.4249,9.8547,-0.0063,0.0097,-0.0005
20.22,0.4046,-0.2685,9.7516,0.0115,0.0179,0.0098
20.24,0.2959,-0.2689,9.7182,0.0178,0.029,0.0167
20.26,0.4594,-0.7861,10.0585,0.015,0.0163,-0.0017
20.28,0.499,-0.0148,9.8139,-0.0181,-0.0178,0.0026
20.3,0.3735,-0.2123,9.8683,-0.0136,-0.0117,-0.0269
20.32,0.1629,-0.2189,9.8781,0.0107,-0.0033,-0.0223
20.34,0.3016,-0.5007,9.8852,0.059,0.0146,-0.0357
20.36,0.4613,0.1349,9.5134,0.1375,0.0446,-0.0124
20.38,0.3816,-0.1207,9.5733,0.1978,0.1012,-0.0194
20.4,0.4144,-0.1202,9.5948,0.1208,0.1168,0.0036
20.42,0.2572,-0.1728,9.497,0.0886,0.0192,0.0677
20.44,0.2383,-0.2658,9.3332,-0.2303,-0.1558,0.1148
20.46,0.0195,-0.1077,9.2109,-0.4949,-0.2927,0.1727
20.48,-0.4946,-0.4086,9.0124,-0.6687,-0.2928,0.1824
20.5,-0.7887,-0.3514,9.9577,-0.6865,-0.0396,0.1612
20.52,-0.7758,-0.1439,10.6994,-0.4164,0.2599,0.077
20.54,0.4792,-0.3036,12.1368,-0.0349,0.4102,0.0025
20.56,1.304,-0.2631,11.5649,0.3775,0.3261,-0.0712
20.58,1.451,-0.1072,9.9894,0.648,-0.0188,-0.1295
20.6,0.9342,-0.2223,9.4468,0.6732,-0.2407,-0.1705
20.62,0.4782,-0.2102,9.2029,0.4988,-0.3044,-0.1634
20.64,0.3908,0.0042,9.0736,0.2436,-0.1498,-0.1047
20.66,0.2886,0.0298,9.4287,-0.0374,-0.0155,-0.0577
20.68,0.3183,-0.2149,9.6897,-0.1464,0.1028,-0.0169
20.7,0.2451,0.1196,9.6602,-0.2127,0.1087,0.0003
20.72,0.2218,0.2357,9.6481,-0.1407,0.0715,0.0275
20.74,0.2753,-0.0581,9.621,-0.0995,0.0019,0.0335
20.76,0.3867,-0.0259,9.6955,-0.0474,-0.0341,0.0061
20.78,0.3878,0.0974,9.8454,-0.0027,-0.0332,0.0209
20.8,0.4545,-0.2603,9.9241,0.0165,0.0113,0.0281
20.82,0.3312,-0.0524,9.5856,-0.012,0.0017,0.0025
20.84,0.5188,-0.1138,9.6986,-0.0288,-0.0175,-0.0258
20.86,0.3646,0.0212,9.6884,-0.027,0.0251,-0.0265
20.88,0.2342,0.0339,9.8601,-0.0194,-0.0024,0.0101
20.9,0.5388,-0.0373,9.8748,-0.0157,-0.0552,0.0207
20.92,0.4639,0.0246,10.0495,0.0911,-0.0247,0.0541
20.94,0.4861,-0.0628,9.8328,0.1506,-0.0315,0.0547
20.96,0.6372,0.0658,9.471,0.2673,0.1124,0.0295
20.98,0.8137,-0.2142,9.2256,0.3229,0.1642,-0.0053
21.0,0.528,-0.463,9.1968,0.1825,0.1404,-0.0689
21.02,0.1225,-0.0808,8.9901,-0.1346,-0.094,-0.1279
21.04,0.0793,0.0631,8.6267,-0.5652,-0.3817,-0.1907
21.06,-0.1574,0.1483,8.595,-0.9772,-0.4742,-0.277
21.08,-1.0932,0.0839,9.1371,-1.1657,-0.2849,-0.2581
21.1,-1.1141,0.1858,11.4522,-0.9309,0.1582,-0.2109
21.12,-0.6003,0.4677,13.1989,-0.4285,0.5845,-0.0771
21.14,0.7016,0.1266,13.4917,0.2951,0.6627,0.0436
21.16,1.8369,0.5196,11.8813,0.8564,0.3063,0.1639
21.18,2.1731,0.0344,9.313,1.1096,-0.2005,0.2663
21.2,1.2154,-0.0185,8.7231,1.0003,-0.4558,0.2933
21.22,0.5799,-0.4744,8.6731,0.6413,-0.4264,0.2097
21.24,0.3335,-0.6083,8.9063,0.1715,-0.1428,0.1471
21.26,0.1991,-0.4021,9.0937,-0.1524,0.1091,0.0469
21.28,0.3106,-0.5053,9.3688,-0.3216,0.2143,-0.0015
21.3,0.2028,-0.4612,9.5497,-0.3151,0.1266,-0.0277
21.32,0.0263,-0.3216,9.7788,-0.1878,0.0587,-0.0195
21.34,0.2854,-0.4678,10.2502,-0.1253,-0.0036,-0.0441
21.36,0.0699,-0.284,9.9539,-0.059,-0.0408,-0.0059
21.38,0.3393,-0.111,9.8702,0.0076,-0.0261,-0.0045
21.4,0.0534,-0.351,9.6507,-0.0066,0.0111,-0.0151
21.42,0.2311,-0.2015,9.7164,0.0145,-0.0273,0.0103
21.44,0.2349,-0.4088,9.8129,-0.0477,-0.0118,-0.0173
21.46,0.5016,-0.1405,9.7357,0.0118,-0.0405,-0.0105
21.48,0.4649,-0.0654,10.1172,0.0268,-0.0274,-0.0415
21.5,0.4483,-0.5385,9.7749,0.1425,0.0372,-0.0531
21.52,0.693,0.0244,9.7372,0.225,0.0981,-0.0046
21.54,0.4109,-0.2492,9.4122,0.2152,0.1728,-0.0048
21.56,0.2258,-0.3964,9.4197,0.1945,0.1283,0.0141
21.58,0.3416,-0.4148,9.2213,-0.0387,-0.0239,0.0525
21.6,-0.2246,-0.0115,8.9165,-0.3684,-0.2563,0.1406
21.62,-0.4949,-0.237,8.6019,-0.7207,-0.4229,0.2021
21.64,-0.8037,-0.4937,9.0142,-0.9516,-0.273,0.2246
21.66,-1.4328,-0.8674,10.4683,-0.8086,0.0845,0.2106
21.68,-0.7632,-0.6372,11.9538,-0.484,0.4403,0.0953
21.7,0.6321,-0.7757,12.837,0.0823,0.55,-0.0181
21.72,1.3802,-0.6826,11.6509,0.6422,0.2985,-0.1456
21.74,1.5026,-0.8181,9.75,0.9157,-0.0951,-0.2144
21.76,1.2149,-0.6847,8.9235,0.8739,-0.3929,-0.2211
21.78,0.6143,-0.2363,9.0558,0.5769,-0.3884,-0.1888
21.8,0.1139,-0.3384,9.0497,0.207,-0.1758,-0.1339
21.82,0.1751,-0.3829,9.2508,-0.0571,0.0463,-0.0748
21.84,0.2375,-0.3275,9.4265,-0.2268,0.1413,0.0074
21.86,-0.3157,-0.1626,9.4069,-0.254,0.1222,0.0031
21.88,-0.0117,-0.2394,9.5642,-0.161,0.0569,0.0306
21.9,0.1976,-0.3211,9.7916,-0.1214,0.0138,0.0439
21.92,-0.1314,-0.5892,9.9641,-0.0606,-0.0388,0.0253
21.94,0.2945,-0.3424,10.1526,-0.0234,-0.0697,0.0214
21.96,0.2623,-0.5001,9.8996,0.0196,-0.0243,0.0236
21.98,0.5931,-0.609,9.7695,0.0741,-0.0376,0.0294
22.0,0.2934,-0.2532,9.8116,0.1144,0.0219,0.0241
22.02,0.7053,-0.456,9.6105,0.2438,0.088,0.0284
22.04,0.5014,-0.4607,9.0672,0.2735,0.1667,0.0312
22.06,0.1986,-0.4666,9.3822,0.1849,0.1376,-0.0416
22.08,0.1236,-0.5837,8.8525,-0.0636,-0.0139,-0.1191
22.1,0.3675,-0.538,8.8764,-0.4427,-0.3084,-0.1761
22.12,-0.2589,-0.1793,8.7735,-0.8441,-0.4717,-0.22
22.14,-1.2002,-0.343,9.1101,-1.0782,-0.3041,-0.2409
22.16,-1.4319,0.279,10.3817,-0.9416,0.1102,-0.2096
22.18,-0.5562,-0.0416,13.052,-0.499,0.5473,-0.0675
22.2,0.5906,-0.0502,13.6877,0.1707,0.6201,0.0251
22.22,1.7373,0.0775,11.5139,0.7556,0.2993,0.1655
22.24,2.0308,0.1627,9.4842,1.0457,-0.1398,0.2243
22.26,1.3382,-0.004,8.8557,0.9604,-0.4364,0.2411
22.28,0.7465,-0.2017,8.696,0.6188,-0.3865,0.1873
22.3,0.3443,-0.1252,8.9512,0.1985,-0.1804,0.1283
22.32,0.2325,-0.3632,9.0165,-0.1076,0.0666,0.0552
22.34,-0.106,-0.3493,9.2015,-0.2629,0.1823,-0.01
22.36,-0.017,-0.222,9.5556,-0.2531,0.1074,-0.0318
22.38,0.2648,-0.1226,9.9385,-0.1712,0.0356,0.0061
22.4,0.0207,-0.2112,9.8837,-0.1239,-0.0036,-0.0308
22.42,0.0376,-0.0457,10.0678,-0.0441,-0.0394,-0.0087
22.44,0.3696,-0.2837,10.0579,-0.0025,-0.036,-0.0376
22.46,0.4977,-0.2703,9.8931,0.0053,-0.0225,-0.0417
22.48,0.2818,0.0923,9.5836,0.0233,0.0196,-0.0097
22.5,0.0969,-0.0939,10.1042,-0.046,-0.0211,-0.0015
22.52,0.013,-0.1994,9.9734,-0.0045,-0.0777,-0.0141
22.54,0.6175,-0.0111,9.7319,-0.0126,-0.0204,-0.0197
22.56,0.7149,0.0014,9.725,0.109,0.0214,-0.0288
22.58,0.7116,0.1403,9.3187,0.208,0.0772,-0.024
22.6,0.4125,-0.1324,9.5271,0.2612,0.1246,-0.0168
22.62,0.6746,-0.1285,9.3177,0.1864,0.1253,0.0128
22.64,0.7183,-0.0393,9.0729,0.0153,0.0306,0.0834
22.66,0.6004,-0.1099,9.0354,-0.315,-0.2093,0.1435
22.68,-0.0021,0.2178,9.0275,-0.7292,-0.3757,0.2055
22.7,-0.6969,-0.2895,9.1346,-0.9472,-0.338,0.2254
22.72,-1.0475,-0.7142,10.0724,-0.9192,-0.0177,0.2068
22.74,-0.7494,-0.1685,12.2179,-0.5469,0.3831,0.1182
22.76,0.3234,-0.4714,12.4219,0.0246,0.5886,0.011
22.78,1.5421,-0.2304,11.4421,0.5637,0.3771,-0.1283
22.8,1.7495,-0.2651,9.918,0.8802,-0.0402,-0.1821
22.82,1.3836,0.3183,9.143,0.8935,-0.3412,-0.2142
22.84,0.5747,-0.0112,8.8953,0.6393,-0.3861,-0.2105
22.86,0.0125,-0.0103,8.9225,0.2747,-0.2038,-0.1514
22.88,0.3394,0.0923,8.8678,-0.04,0.0212,-0.065
22.9,0.2724,-0.0295,8.9682,-0.2387,0.1355,0.0021
22.92,0.222,0.042,9.5403,-0.2586,0.1302,0.0281
22.94,0.0469,-0.1494,9.8485,-0.1908,0.0494,0.056
22.96,0.336,0.0735,9.8942,-0.0892,-0.0012,0.0243
22.98,0.0799,-0.4952,9.3365,-0.0456,-0.0074,0.045
23.0,0.1301,-0.2114,9.9831,-0.0112,-0.0157,0.0217
23.02,0.3747,-0.2563,9.5754,0.0058,0.0347,0.0196
23.04,0.0211,-0.7929,9.0333,0.0049,0.0116,-0.0094
23.06,0.9121,0.3583,10.7389,-0.0267,-0.012,-0.014
23.08,-0.4096,-0.6332,9.1779,0.0393,-0.0347,0.0171
23.1,-0.1283,-0.6236,8.9645,0.0652,-0.0373,0.0401
23.12,0.9103,0.4227,10.4821,0.1413,0.0242,0.0256
23.14,0.7679,-0.1446,9.9614,0.216,0.11,0.0393
23.16,0.2758,-0.4349,9.1065,0.1985,0.0873,-0.008
23.18,0.0518,-0.535,8.8885,0.0576,0.0534,-0.0336
23.2,0.6344,-0.004,9.347,-0.2305,-0.1377,-0.1147
23.22,0.041,-0.7247,9.0582,-0.5429,-0.3436,-0.1908
23.24,-0.7378,-0.2658,8.8494,-0.774,-0.3516,-0.1923
23.26,-1.1164,-0.2072,9.7844,-0.8373,-0.0993,-0.1872
23.28,-0.4851,-0.0701,11.6744,-0.6024,0.2966,-0.0918
23.3,-0.2525,0.207,12.4397,-0.0935,0.4905,-0.0107
23.32,0.9322,-0.3296,12.1048,0.3731,0.419,0.0972
23.34,1.8163,-0.1023,10.3927,0.7863,0.0554,0.1733
23.36,1.5132,-0.2468,8.9612,0.8571,-0.2384,0.2056
23.38,0.5606,-0.334,8.8465,0.6511,-0.3609,0.186
23.4,0.2709,-0.6893,9.0765,0.2962,-0.2314,0.1422
23.42,0.4639,-0.5221,9.151,-0.0213,-0.0208,0.0481
23.44,-0.0439,-0.4495,9.3735,-0.2108,0.1082,0.0265
23.46,-0.1908,-0.5137,9.2748,-0.2062,0.1402,-0.0177
23.48,-0.0945,0.097,9.5078,-0.2259,0.0758,-0.0146
23.5,0.0925,-0.6513,9.7694,-0.0947,0.0029,-0.0145
23.52,0.0817,-0.2783,9.7205,-0.0799,-0.0189,-0.0281
23.54,0.2664,-0.4021,9.9113,-0.0046,-0.0251,-0.0017
23.56,0.2614,-0.4184,9.7736,0.0183,-0.0071,0.0093
23.58,-0.0156,-0.2954,9.7054,0.0372,0.0027,-0.0197
23.6,-0.0872,-0.5824,9.5284,-0.025,-0.0082,-0.0169
23.62,0.406,-0.4487,9.7646,-0.0293,-0.0162,0.0067
23.64,0.1291,-0.4827,10.1786,-0.007,-0.0369,0.0038
23.66,0.4807,-0.5398,10.0974,0.05,-0.0378,-0.0247
23.68,0.5414,-0.1448,9.8051,0.1086,0.0613,-0.0199
23.7,0.2154,-0.3946,9.6422,0.195,0.1011,-0.017
23.72,0.1043,-0.4034,9.6413,0.2556,0.1403,-0.0042
23.74,0.1172,-0.2108,9.4419,0.1554,0.1176,0.0356
23.76,0.2377,-0.4171,9.2363,-0.0646,-0.0307,0.0635
23.78,0.1722,-0.1672,9.244,-0.3741,-0.2839,0.1703
23.8,-0.3436,-0.3526,9.2656,-0.6926,-0.3652,0.161
23.82,-0.7484,-0.2679,9.3623,-0.8347,-0.2091,0.1777
23.84,-0.8314,-0.829,10.5216,-0.7107,0.097,0.1639
23.86,-0.712,-0.714,11.4479,-0.3587,0.4345,0.0487
23.88,0.8092,-0.9821,12.5794,0.1829,0.4984,0.0032
23.9,1.1509,-0.6968,11.318,0.5999,0.2527,-0.141
23.92,1.4176,-0.536,9.4089,0.8174,-0.1418,-0.1698
23.94,0.879,-0.4205,8.8987,0.7339,-0.3372,-0.2135
23.96,0.4758,-0.5125,8.9418,0.4564,-0.3325,-0.1597
23.98,0.0319,-0.1713,8.9836,0.1311,-0.1097,-0.1174
24.0,0.0144,0.0166,9.16,-0.1024,0.0545,-0.0632
24.02,0.2101,-0.533,9.4238,-0.2572,0.1259,-0.0012
24.04,0.0032,-0.2788,9.5065,-0.243,0.1031,0.0251
24.06,0.0045,0.1571,9.8001,-0.1576,0.0382,0.0411
24.08,0.0957,-0.3172,9.9086,-0.0696,-0.0299,0.0221
24.1,-0.0876,-0.1,9.9313,-0.0549,-0.0094,0.0191
24.12,0.2952,-0.296,9.8223,-0.0529,-0.0296,0.01
24.14,0.1797,-0.2722,9.9861,0.0236,-0.0296,0.0229
24.16,0.4315,-0.4559,9.9149,0.071,-0.0086,0.0223
24.18,0.3097,-0.3277,9.7351,0.1156,0.0092,0.0243
24.2,0.4178,0.0442,9.6632,0.2082,0.1119,0.0112
24.22,0.4549,-0.2282,9.5523,0.2397,0.1671,0.0061
24.24,0.3613,-0.4523,9.33,0.1602,0.0994,-0.0106
24.26,0.3818,-0.1752,9.0797,-0.0744,-0.0672,-0.0903
24.28,0.0758,-0.1206,9.0164,-0.4184,-0.2791,-0.164
24.3,-0.0816,0.0912,8.7135,-0.7651,-0.4088,-0.2072
24.32,-0.7969,0.0145,9.1948,-0.8915,-0.2728,-0.2138
24.34,-1.2044,-0.217,10.25,-0.8209,0.0944,-0.1851
24.36,-0.3163,0.2881,12.5513,-0.3924,0.4407,-0.1076
24.38,0.6333,0.0649,13.2438,0.1461,0.5557,0.0385
24.4,1.4994,0.4125,10.8646,0.6777,0.2785,0.138
24.42,1.8782,0.1997,9.5944,0.9225,-0.1141,0.2119
24.44,1.2369,0.1435,8.9784,0.8348,-0.4012,0.2373
24.46,0.637,-0.2747,8.8273,0.5598,-0.3429,0.1984
24.48,0.4286,-0.2048,8.9454,0.1744,-0.1457,0.1146
24.5,0.2994,-0.0526,9.2918,-0.1114,0.0667,0.0647
24.52,0.3342,-0.2196,9.3083,-0.2554,0.1537,0.0154
24.54,0.3436,-0.195,9.4783,-0.2162,0.1192,-0.0156
24.56,0.4359,-0.0014,9.6755,-0.1881,0.0233,-0.0314
24.58,0.4017,-0.3474,9.6487,-0.1131,-0.0165,-0.0422
24.6,0.0762,-0.1883,9.915,-0.0168,-0.0557,-0.0145
24.62,0.2409,0.0323,9.7557,-0.0099,-0.0057,-0.0221
24.64,0.3176,-0.1139,9.8257,-0.0245,-0.029,0.0111
24.66,0.3631,0.1082,9.9839,0.0039,-0.014,-0.009
24.68,0.5465,0.1229,9.7195,0.0648,0.0348,-0.0073
24.7,0.342,-0.0004,9.8206,0.1659,0.0471,-0.0086
24.72,0.1743,0.0419,9.6371,0.1907,0.0897,-0.0367
24.74,0.2443,0.1312,9.4002,0.168,0.1076,-0.0014
24.76,0.5728,-0.1892,9.2284,0.0327,0.0625,0.0466
24.78,0.5737,-0.1952,9.3371,-0.2191,-0.1439,0.1289
24.8,0.0963,-0.2028,9.0814,-0.5041,-0.3119,0.1626
24.82,-0.4655,-0.1251,9.2774,-0.7464,-0.289,0.1894
24.84,-0.6709,-0.2397,9.6698,-0.7526,-0.1183,0.196
24.86,-0.5193,-0.5658,11.361,-0.5913,0.2552,0.1189
24.88,-0.2767,-0.5022,11.8623,-0.1289,0.4511,0.0191
24.9,1.0972,-0.3264,11.8153,0.3079,0.365,-0.0953
24.92,1.6192,-0.3041,10.7244,0.6404,0.083,-0.1417
24.94,0.8273,-0.0634,9.326,0.7476,-0.2384,-0.1698
24.96,0.692,-0.242,9.1998,0.6219,-0.3444,-0.151
24.98,0.276,-0.0802,9.2419,0.3188,-0.2129,-0.1401
25.0,0.1499,0.018,9.1429,0.0593,-0.0308,-0.0734
25.02,0.172,-0.1138,9.3999,-0.1917,0.1115,-0.0178
25.04,0.3319,-0.4754,9.5664,-0.2353,0.1416,-0.0046
25.06,0.1487,0.0481,9.386,-0.1658,0.0621,-0.0006
25.08,-0.1356,-0.0011,9.6858,-0.1094,-0.0111,0.0168
25.1,0.0448,-0.1663,9.8113,-0.0433,-0.0153,0.0187
25.12,0.0954,-0.475,10.0816,-0.0129,-0.0285,0.0401
25.14,0.5023,-0.1172,9.7235,0.0251,-0.0294,0.0094
25.16,-0.1123,-0.1607,9.6279,-0.0243,-0.0249,-0.005
25.18,0.2094,-0.3958,9.896,-0.0247,-0.0333,-0.0006
25.2,0.2006,-0.475,9.8769,0.0392,-0.0283,0.0206
25.22,0.6643,-0.3141,9.8789,0.1092,0.0102,0.0276
25.24,0.3866,-0.1608,9.6381,0.1891,0.0576,0.0429
25.26,0.2583,-0.3205,9.312,0.2497,0.1695,-0.0006
25.28,0.1861,-0.5741,9.3402,0.1528,0.1302,-0.0355
25.3,0.4809,-0.2839,9.1009,0.002,-0.009,-0.0841
25.32,0.1475,-0.5284,8.9173,-0.3727,-0.2635,-0.1362
25.34,-0.2201,-0.501,8.8526,-0.6366,-0.3961,-0.2083
25.36,-1.0795,-0.1688,8.819,-0.8723,-0.3036,-0.2206
25.38,-1.2467,-0.2757,10.3408,-0.8586,0.0698,-0.185
25.4,-0.837,0.0867,12.6059,-0.5104,0.4057,-0.0919
25.42,0.2323,0.0384,12.8149,0.1024,0.5409,0.0158
25.44,1.3087,0.0398,11.2925,0.5963,0.3121,0.1301
25.46,1.7476,-0.2707,9.7713,0.8505,-0.055,0.194
25.48,1.1237,-0.5457,9.1004,0.8475,-0.3452,0.222
25.5,0.7104,-0.5964,8.8469,0.6053,-0.3586,0.1608
25.52,0.201,-0.7195,9.007,0.2045,-0.1564,0.109
25.54,0.3794,-0.5046,9.2209,-0.0759,0.0369,0.0729
25.56,0.1519,-0.3027,9.5159,-0.2292,0.1752,0.0136
25.58,-0.1977,-0.4724,9.4703,-0.2558,0.1295,-0.0013
25.6,-0.2022,-0.5322,9.7051,-0.1912,0.0429,-0.0282
25.62,0.0644,-0.4497,9.8367,-0.1196,0.0013,-0.0095
25.64,0.056,-0.6147,9.66,-0.0347,-0.0095,-0.0194
25.66,-0.0118,-0.6993,9.8307,-0.0019,0.0029,-0.0367
25.68,0.1365,-0.4683,9.8544,0.0213,-0.0212,-0.0095
25.7,0.2746,-0.6041,9.6634,-0.0515,0.0292,0.0019
25.72,0.1501,-0.3935,9.9568,-0.0243,-0.0283,0.0074
25.74,0.3145,-0.3125,9.7458,0.0387,-0.0268,-0.014
25.76,-0.2245,-0.4716,9.9344,0.0318,-0.0557,-0.0328
25.78,0.4327,-0.1938,9.7878,0.0892,-0.0224,-0.0357
25.8,0.3596,-0.2495,9.4395,0.2024,0.124,-0.032
25.82,0.316,-0.4604,9.5373,0.2189,0.1308,-0.0164
25.84,0.0202,-0.1928,9.2028,0.1681,0.1035,0.0265
25.86,0.0722,-0.0351,8.9711,-0.0046,-0.0042,0.0702
25.88,-0.0944,-0.1878,9.1948,-0.374,-0.2437,0.1548
25.9,-0.2976,-0.5381,8.9881,-0.7022,-0.3715,0.1755
25.92,-0.8796,-0.3942,9.0511,-0.8751,-0.2546,0.2398
25.94,-0.936,-0.2311,10.3005,-0.7737,0.0769,0.1721
25.96,-0.6886,-0.6291,12.1204,-0.416,0.4006,0.0698
25.98,0.4295,-0.9677,12.2463,0.0991,0.5013,-0.0162
26.0,1.6206,-0.4332,11.6389,0.5708,0.2712,-0.1176
26.02,1.3976,-0.451,9.6928,0.9054,-0.0784,-0.1797
26.04,0.9807,-0.469,9.2074,0.807,-0.3399,-0.2171
26.06,0.5596,-0.0861,9.3127,0.5394,-0.3804,-0.1743
26.08,0.4918,-0.247,9.0891,0.2095,-0.1643,-0.125
26.1,0.2046,-0.0628,9.3524,-0.0757,0.0733,-0.0514
26.12,0.3019,-0.1432,9.3105,-0.2013,0.157,0.0213
26.14,0.1182,-0.2796,9.4343,-0.2609,0.1167,0.0206
26.16,0.101,0.0154,9.5021,-0.1979,0.0538,0.0171
26.18,0.4437,0.075,9.9108,-0.0886,-0.0409,0.0279
26.2,0.4436,-0.1274,9.7083,-0.04,-0.011,0.0004
26.22,0.0776,-0.0517,9.8312,-0.0163,-0.0149,0.0011
26.24,0.188,-0.2598,9.5767,0.0231,-0.0068,0.0059
26.26,0.2563,-0.0668,10.1893,0.0133,-0.0274,0.0223
26.28,0.2252,-0.0058,9.8624,0.0021,-0.0428,0.0173
26.3,0.5833,0.0104,9.6974,0.092,-0.0016,0.0169
26.32,0.4136,-0.0785,9.7574,0.1891,0.0462,0.0288
26.34,0.5916,-0.0769,9.3439,0.1893,0.1423,0.0206
26.36,0.4382,-0.306,9.3501,0.2166,0.1387,0.0061
26.38,0.0642,-0.1746,8.9952,0.0544,0.0146,-0.0411
26.4,0.3368,-0.212,9.0301,-0.2638,-0.1812,-0.1304
26.42,0.1301,0.0812,8.8552,-0.5689,-0.3825,-0.1762
26.44,-0.4346,0.1234,8.9291,-0.8884,-0.3435,-0.1991
26.46,-0.9197,0.345,9.7932,-0.891,-0.0883,-0.2116
26.48,-1.0783,-0.0486,11.5648,-0.6306,0.3058,-0.1456
26.5,-0.0357,0.19,12.9465,-0.099,0.5503,-0.0217
26.52,1.3204,0.1704,11.8835,0.4281,0.4249,0.0832
26.54,1.5945,-0.0908,10.1913,0.7998,0.0719,0.1941
26.56,1.6081,0.5831,9.0948,0.9016,-0.303,0.2206
26.58,0.7038,0.0955,8.85,0.6696,-0.3919,0.2016
26.6,0.4836,-0.304,8.8288,0.3393,-0.2537,0.1646
26.62,0.3383,-0.0746,9.1542,0.0056,-0.0199,0.0807
26.64,0.3382,-0.209,9.1892,-0.2105,0.1365,0.0322
26.66,0.0386,-0.1045,9.2565,-0.2458,0.1312,-0.0091
26.68,-0.0177,-0.1236,9.492,-0.2072,0.0711,-0.0197
26.7,-0.2387,-0.0745,10.0118,-0.1031,-0.0259,-0.0327
26.72,0.2359,0.0402,9.8748,-0.0699,-0.0436,-0.0271
26.74,0.2186,-0.002,9.8094,-0.0084,-0.0156,-0.0101
26.76,0.161,-0.3102,9.9355,-0.0367,-0.07,-0.0069
26.78,0.2877,-0.1523,9.6405,0.0546,-0.0139,-0.0373
26.8,0.7067,-0.2423,9.4887,0.1293,0.0162,-0.0006
26.82,0.4063,0.0949,9.611,0.1695,0.0502,-0.0125
26.84,0.8354,-0.255,9.4601,0.2035,0.1556,-0.0131
26.86,0.0745,-0.1148,9.4575,0.174,0.1307,0.0068
26.88,0.1904,-0.0794,9.1193,-0.015,-0.0027,0.0392
26.9,-0.0562,-0.2709,8.9547,-0.2855,-0.1935,0.1323
26.92,-0.1654,-0.0993,9.3101,-0.6213,-0.3594,0.1863
26.94,-0.858,-0.3388,8.9611,-0.8075,-0.2828,0.2168
26.96,-1.0951,-0.7444,10.2116,-0.8071,0.034,0.1981
26.98,-0.4587,-0.1503,11.9904,-0.5033,0.3561,0.0886
27.0,0.1897,-0.6168,12.4125,0.0491,0.4971,-0.0087
27.02,1.137,-0.434,11.3121,0.4971,0.3181,-0.1124
27.04,1.2352,-0.3035,9.9069,0.7922,-0.0392,-0.1942
27.06,0.9505,-0.2822,9.0478,0.7612,-0.3323,-0.1796
27.08,0.3812,-0.503,8.9384,0.5406,-0.3307,-0.1878
27.1,0.4161,-0.3663,9.0817,0.2391,-0.1625,-0.1236
27.12,0.2488,-0.1254,9.0057,-0.0704,0.0208,-0.0742
27.14,0.2765,-0.2783,9.5999,-0.1809,0.1261,-0.0366
27.16,-0.1179,-0.3338,9.525,-0.2343,0.1415,0.0141
27.18,0.2564,-0.2208,9.4768,-0.2073,0.0679,0.014
27.2,-0.2002,-0.2602,9.7991,-0.0997,-0.0101,0.0055
27.22,0.2374,-0.1501,10.0298,-0.0252,-0.0312,0.0314
27.24,0.354,-0.3535,9.9329,-0.0162,-0.0234,-0.0007
27.26,0.4978,-0.1468,9.8415,0.004,-0.036,-0.0003
27.28,0.1351,-0.4361,9.4237,-0.0123,0.0067,0.0112
27.3,-0.1518,-0.6026,9.834,-0.016,-0.0031,-0.0036
27.32,0.1262,-0.3532,9.8017,-0.0184,0.0119,0.0083
27.34,0.2774,-0.4895,9.8979,-0.0302,-0.0064,0.0016
27.36,0.1999,-0.3856,9.9352,-0.0153,-0.026,-0.02
27.38,0.3319,-0.4993,9.8462,0.0756,-0.0129,0.0306
27.4,0.2617,-0.5363,9.8909,0.1416,0.0315,0.0495
27.42,0.1695,-0.5264,9.3487,0.1933,0.0681,0.0152
27.44,0.2285,-0.7778,9.2765,0.2004,0.1543,0.0012
27.46,0.2026,-0.6147,9.3021,0.0814,0.0902,-0.0385
27.48,0.298,-0.4209,8.941,-0.1758,-0.0741,-0.1193
27.5,-0.0122,-0.5606,9.1614,-0.4726,-0.3025,-0.155
27.52,-0.4818,-0.4267,9.0898,-0.7366,-0.3074,-0.1971
27.54,-1.0664,-0.1773,9.6634,-0.7507,-0.1087,-0.1814
27.56,-0.7162,0.0,10.9237,-0.5911,0.2129,-0.1267
27.58,-0.1465,0.225,12.5971,-0.2186,0.4174,-0.0434
27.6,0.8075,0.0047,11.9384,0.3129,0.3967,0.0454
27.62,1.1751,-0.0366,10.0244,0.6594,0.0918,0.1315
27.64,1.1408,-0.1173,9.1627,0.7481,-0.1923,0.1856
27.66,0.5572,-0.3895,8.7949,0.6371,-0.3196,0.1406
27.68,0.0787,-0.6897,8.9652,0.3321,-0.2173,0.1008
27.7,0.2368,-0.6314,9.1428,0.0478,-0.0548,0.0677
27.72,0.4292,-0.4333,9.4836,-0.1684,0.1024,0.0315
27.74,0.2464,-0.4537,9.3994,-0.2036,0.1281,-0.0019
27.76,0.3253,-0.655,9.5956,-0.2436,0.0787,-0.0323
27.78,0.2005,-0.3273,9.8097,-0.1296,0.0305,-0.0616
27.8,-0.0354,-0.51,9.817,-0.077,-0.034,-0.0132
27.82,0.4123,-0.0171,10.1903,0.0376,-0.0379,-0.0026
27.84,0.2023,-0.2684,9.9358,-0.0125,-0.0161,0.0111
27.86,0.168,-0.2545,9.7633,-0.0309,-0.0184,-0.0185
27.88,-0.0594,-0.0337,9.6916,-0.0107,-0.0195,-0.0119
27.9,0.3186,-0.1606,10.0037,-0.0175,-0.0458,-0.0031
27.92,0.0416,-0.3369,9.7314,0.0686,0.0012,-0.0075
27.94,0.3749,-0.1276,9.5901,0.13,0.0311,-0.0095
27.96,0.2231,-0.1278,9.6847,0.2125,0.084,-0.0209
27.98,0.1133,-0.0566,9.3778,0.1996,0.1324,-0.0059
28.0,0.2855,-0.2045,9.2571,0.0616,0.0736,0.0375
28.02,0.3628,-0.1695,9.3564,-0.1126,-0.0695,0.0903
28.04,0.0694,-0.2083,9.0295,-0.447,-0.2786,0.1572
28.06,-0.3306,-0.087,8.8791,-0.726,-0.3363,0.1834
28.08,-0.9891,-0.2933,9.7509,-0.8038,-0.1691,0.1938
28.1,-1.1053,-0.1794,10.392,-0.5951,0.1939,0.1113
28.12,-0.0135,-0.4046,11.9437,-0.2057,0.4199,0.0419
28.14,0.7495,-0.6361,12.319,0.292,0.4237,-0.063
28.16,1.3095,-0.1527,10.306,0.6495,0.127,-0.151
28.18,1.179,0.0056,9.1061,0.7841,-0.1999,-0.1715
28.2,0.7319,0.0305,8.8828,0.6143,-0.3292,-0.1751
28.22,0.5535,0.3167,9.1907,0.3926,-0.2607,-0.1245
28.24,0.0379,0.1058,8.8486,0.0687,-0.0547,-0.0843
28.26,0.2304,0.114,9.4578,-0.1675,0.0888,-0.0142
28.28,-0.0434,0.1143,9.6239,-0.2137,0.1019,0.0096
28.3,0.0793,0.0741,9.6095,-0.2172,0.0888,0.0221
28.32,0.1493,-0.1686,9.727,-0.1728,0.0034,0.0151
28.34,0.2571,0.2737,9.9471,-0.0585,-0.0236,0.0424
28.36,-0.0225,-0.2775,9.7612,-0.0005,-0.0582,0.0082
28.38,0.741,0.1563,9.7609,0.019,-0.0637,0.034
28.4,0.4962,0.0134,9.9309,0.1109,0.0295,0.0607
28.42,0.6124,-0.0871,9.4105,0.1843,0.0714,0.0148
28.44,0.2836,0.0064,9.2707,0.2505,0.1693,0.0028
28.46,0.4923,0.0566,9.3077,0.2065,0.1451,-0.0227
28.48,0.3124,0.0069,8.9964,-0.0246,0.0059,-0.085
28.5,-0.014,0.0025,8.9243,-0.3879,-0.2193,-0.1637
28.52,-0.0989,0.0319,8.7628,-0.7416,-0.4016,-0.2117
28.54,-0.6999,0.171,9.1087,-0.9422,-0.3353,-0.2094
28.56,-1.2009,0.187,10.4936,-0.8628,0.0311,-0.1911
28.58,-0.6362,0.5657,11.8776,-0.4552,0.4351,-0.1036
28.6,0.5003,0.3168,12.9472,0.0974,0.5415,0.0031
28.62,1.5258,0.0667,11.9975,0.6077,0.3123,0.1096
28.64,1.4521,-0.0446,9.7964,0.9121,-0.0815,0.2163
28.66,1.2504,0.0147,8.8125,0.8514,-0.3474,0.2187
28.68,0.3994,-0.3063,8.9328,0.6176,-0.3829,0.181
28.7,0.2526,-0.368,9.0509,0.244,-0.1762,0.1379
28.72,0.0199,-0.2821,9.2861,-0.0729,0.0723,0.0582
28.74,0.2759,-0.1433,9.3575,-0.2524,0.1629,0.0029
28.76,0.1185,-0.3761,9.5546,-0.2454,0.1152,-0.0165
28.78,-0.1952,-0.1496,9.5917,-0.1781,0.0584,-0.0379
28.8,0.1183,-0.5307,9.9553,-0.0866,-0.0269,-0.0214
28.82,0.1576,0.0993,9.96,-0.0113,-0.0549,-0.0098
28.84,-0.052,-0.3817,9.9732,0.0049,-0.0227,-0.0001
28.86,0.4348,0.1603,9.9449,0.0089,-0.0039,0.0127
28.88,0.2894,-0.2769,9.7938,-0.0192,0.0095,-0.0058
28.9,0.4217,-0.3011,9.5598,0.0047,0.0049,-0.0043
28.92,0.1212,-0.2594,9.6399,0.0095,-0.0153,0.0057
28.94,0.1233,-0.3598,9.8027,0.0103,-0.0189,-0.0119
28.96,0.4845,-0.4296,9.8672,0.0035,-0.0191,-0.0194
28.98,0.15,0.0967,9.9896,0.0738,-0.0482,-0.0306
29.0,0.2677,-0.2339,9.6185,0.1434,0.0083,-0.0338
29.02,0.4221,-0.3671,9.693,0.2322,0.0968,-0.0305
29.04,0.3444,-0.2264,9.5065,0.248,0.1843,-0.0325
29.06,0.1193,-0.1213,9.3849,0.1679,0.1421,0.0574
29.08,0.1949,-0.0043,8.7332,-0.1085,-0.0565,0.0863
29.1,-0.3592,-0.3494,9.129,-0.5032,-0.3451,0.1711
29.12,-0.4874,-0.357,8.8803,-0.8927,-0.4392,0.229
29.14,-1.1634,-0.6008,9.2146,-1.0522,-0.2804,0.2303
29.16,-1.2569,-0.6364,11.0009,-0.8537,0.1436,0.1877
29.18,-0.9335,-0.7684,12.4107,-0.3975,0.5145,0.0732
29.2,0.8265,-0.723,12.9322,0.2337,0.566,-0.042
29.22,1.6362,-0.7204,11.8388,0.8011,0.2893,-0.1598
29.24,1.3344,-0.4232,9.3262,1.0306,-0.1536,-0.2432
29.26,0.9608,-0.4294,8.7093,0.9166,-0.4561,-0.2094
29.28,0.4599,-0.2066,8.9141,0.5929,-0.3936,-0.2041
29.3,0.2956,-0.5241,9.0501,0.174,-0.1406,-0.1233
29.32,0.1957,-0.1829,9.1504,-0.1495,0.1178,-0.0451
29.34,-0.0129,-0.4798,9.3004,-0.2576,0.1728,-0.003
29.36,0.1509,-0.5574,9.4729,-0.2765,0.1343,0.0439
29.38,-0.0535,-0.3525,9.7224,-0.1926,0.0565,0.0206
29.4,0.0452,-0.4699,9.818,-0.1263,-0.0428,0.0179
29.42,0.0559,-0.2271,10.1711,-0.0144,-0.0288,0.0166
29.44,0.1289,-0.3396,9.8292,0.0033,-0.0247,0.0098
29.46,0.3628,-0.354,9.5122,0.0158,0.0044,0.0145
29.48,0.1778,-0.4452,9.884,0.0136,0.0033,0.01
29.5,0.4254,-0.2849,9.7795,0.0041,-0.0064,0.0068
29.52,-0.0891,-0.4716,9.8584,-0.0011,-0.0226,0.025
29.54,0.2119,-0.2986,10.0177,0.0482,-0.0064,0.026
29.56,0.092,-0.5428,9.8331,0.1085,0.0151,0.0449
29.58,0.2798,-0.3093,9.542,0.1772,0.0896,0.0127
29.6,0.2065,-0.1527,9.3605,0.2289,0.1259,0.0099
29.62,0.0073,-0.2129,9.3874,0.1563,0.0873,-0.0125
29.64,0.3794,-0.4876,9.4309,-0.0736,-0.0663,-0.1005
29.66,0.1838,-0.504,8.9023,-0.3775,-0.2769,-0.1602
29.68,-0.5155,-0.327,8.7828,-0.6986,-0.3526,-0.1871
29.7,-0.9463,-0.0471,9.5546,-0.8545,-0.2045,-0.1899
29.72,-0.8683,0.1059,10.5045,-0.739,0.1051,-0.1602
29.74,-0.6355,-0.0025,11.873,-0.3358,0.4319,-0.0799
29.76,0.5284,0.2425,13.0078,0.1767,0.4941,0.0341
29.78,1.1546,-0.1078,11.0182,0.6353,0.2079,0.1404
29.8,1.4493,-0.2944,9.4576,0.8107,-0.1198,0.1737
29.82,0.7582,-0.0495,8.9694,0.7144,-0.3296,0.2033
29.84,0.8797,-0.4476,8.9538,0.457,-0.2813,0.1526
29.86,0.2487,-0.1549,8.8759,0.1409,-0.1056,0.1187
29.88,0.3263,-0.1568,9.2416,-0.1142,0.069,0.0467
29.9,0.2376,-0.1931,9.3195,-0.2175,0.1479,-0.0157
29.92,0.0371,-0.3884,9.7224,-0.1906,0.1313,-0.0297
29.94,0.2558,-0.1949,9.5405,-0.1266,0.0367,-0.0493
29.96,0.369,-0.0068,9.8765,-0.0432,-0.0327,-0.0329
29.98,0.1728,0.1822,9.9104,-0.0198,-0.0574,-0.0293
30.0,0.3139,0.0316,9.7351,0.0135,-0.0332,0.0087
30.02,0.1748,0.0066,9.767,0.013,-0.0039,0.0023
30.04,0.0472,-0.0844,9.8482,-0.0019,0.0034,-0.0241
30.06,0.4222,0.0203,9.9399,-0.0051,0.0035,-0.008
30.08,0.4827,-0.1357,9.99,0.0273,-0.0537,-0.0316
30.1,0.5322,-0.3432,9.6655,0.1532,0.0251,-0.0516
30.12,0.4857,0.0778,9.5495,0.2093,0.0703,-0.0374
30.14,0.3656,0.2781,9.5106,0.236,0.1448,-0.0108
30.16,0.4437,0.0344,9.4252,0.2012,0.1544,0.014
30.18,0.3028,0.0638,9.2268,0.0504,0.0252,0.089
30.2,0.23,0.1106,9.2828,-0.283,-0.2194,0.1451
30.22,-0.3654,-0.1266,8.8859,-0.6824,-0.3839,0.2074
30.24,-0.712,-0.1329,8.9528,-0.881,-0.3421,0.2455
30.26,-1.1813,-0.0683,10.3708,-0.9118,-0.0133,0.2062
30.28,-0.5469,-0.2774,11.4801,-0.5557,0.3949,0.133
30.3,0.3042,-0.1745,12.7499,0.0084,0.5342,0.0179
30.32,1.5038,-0.4804,12.0037,0.5815,0.3572,-0.0965
30.34,1.7156,-0.2072,9.8132,0.8544,-0.0107,-0.1995
30.36,1.1566,-0.1256,9.2045,0.9011,-0.3482,-0.2355
30.38,0.6812,0.1994,8.7913,0.6763,-0.417,-0.1763
30.4,0.2314,-0.0212,9.0064,0.2861,-0.2219,-0.1389
30.42,0.2931,0.1042,9.1359,-0.0262,0.0195,-0.081
30.44,0.3335,-0.0309,9.2898,-0.2216,0.1567,-0.0173
30.46,-0.1641,-0.054,9.2656,-0.2838,0.147,0.0248
30.48,-0.065,-0.2585,9.5989,-0.2362,0.0601,0.0503
30.5,0.2531,-0.2984,9.9316,-0.0948,0.013,0.0227
30.52,-0.2236,-0.0445,9.8454,-0.0156,-0.0146,0.0304
30.54,0.2753,-0.2069,9.7253,0.0148,-0.042,-0.0199
30.56,0.2502,0.1512,9.799,0.0082,-0.0003,-0.0225
30.58,0.1553,0.0934,9.6359,-0.0008,-0.0083,0.0083
30.6,0.3829,0.0216,9.3705,-0.0162,0.0108,0.0011
30.62,0.5701,-0.367,9.5827,-0.0211,0.0337,-0.0136
30.64,0.3547,-0.2039,9.8825,0.015,-0.0407,0.001
30.66,0.1931,-0.096,9.8058,0.0038,-0.028,0.0169
30.68,0.5779,-0.1982,9.8076,0.0775,0.0265,0.0237
30.7,-0.1923,-0.2074,9.7441,0.1542,0.055,0.0224
30.72,0.152,0.0208,9.3827,0.2455,0.1178,0.0001
30.74,0.4184,-0.6075,9.1192,0.1595,0.1524,-0.026
30.76,0.2435,-0.5818,9.4582,-0.0387,-0.048,-0.0734
30.78,-0.1637,-0.0596,8.9135,-0.3663,-0.2382,-0.1233
30.8,-0.1163,-0.3822,8.9036,-0.6312,-0.3585,-0.1758
30.82,-0.6097,-0.1941,9.2105,-0.8231,-0.2474,-0.1943
30.84,-1.2087,-0.4314,10.1548,-0.7357,0.0545,-0.1551
30.86,-0.382,0.178,12.3091,-0.3946,0.364,-0.0823
30.88,0.2235,0.0942,12.4273,0.0787,0.4704,0.023
30.9,1.0552,-0.0171,11.2468,0.5296,0.2811,0.113
30.92,1.378,-0.355,9.6938,0.7898,-0.0955,0.1808
30.94,0.9287,-0.445,8.8525,0.7274,-0.3257,0.2377
30.96,0.5205,-0.1592,8.9466,0.5073,-0.3459,0.1457
30.98,-0.1359,-0.4232,9.1621,0.1714,-0.1221,0.1204
31.0,0.168,-0.4474,8.9234,-0.052,0.0459,0.0593
31.02,-0.0521,-0.307,9.2241,-0.1865,0.1332,0.0019
31.04,0.0197,-0.6425,9.3211,-0.2496,0.0803,-0.0227
31.06,0.0208,-0.6054,9.6819,-0.1613,0.0381,-0.0208
31.08,0.1982,-0.4539,9.8193,-0.0607,-0.0061,-0.0073
31.1,0.2332,-0.4073,9.5543,-0.0133,-0.0267,-0.0094
31.12,0.2303,-0.4465,9.8187,0.0137,0.0002,-0.0157
31.14,0.3457,-0.4585,9.9184,0.0057,-0.0497,0.027
31.16,0.1185,-0.5629,9.5476,-0.0429,0.0073,-0.0165
31.18,0.2148,-0.5115,9.664,-0.005,-0.0402,0.0003
31.2,0.2608,-0.5218,9.7824,-0.0313,0.0075,0.0074
31.22,-0.0489,-0.2661,9.6914,-0.0385,-0.0075,0.0192
31.24,0.3121,-0.3382,9.7641,-0.0119,0.0024,0.0039
31.26,-0.2325,-0.2642,9.7274,0.0255,-0.0585,-0.0092
31.28,0.2806,-0.297,10.1724,0.0294,-0.0543,-0.0211
31.3,0.2264,-0.3149,9.8652,0.1286,0.0144,-0.0223
31.32,0.4095,-0.558,9.4317,0.2044,0.1025,-0.01
31.34,0.3096,-0.127,9.6577,0.2469,0.1437,-0.0166
31.36,0.2617,-0.5653,9.3894,0.1776,0.118,0.0406
31.38,0.1015,-0.3577,9.2111,-0.0658,-0.0568,0.1052
31.4,-0.0623,0.0029,8.9955,-0.4011,-0.3068,0.1393
31.42,-0.2068,-0.2992,9.1004,-0.7544,-0.3701,0.2104
31.44,-1.0971,-0.3691,9.4053,-0.9007,-0.2328,0.2102
31.46,-0.9015,-0.3328,10.9559,-0.7914,0.1592,0.1736
31.48,-0.3628,-0.5333,12.0688,-0.331,0.4735,0.0784
31.5,0.2657,-0.5988,12.2745,0.182,0.5238,-0.0281
31.52,1.5135,-0.695,11.4805,0.6471,0.2318,-0.102
31.54,1.3428,-0.4853,9.7759,0.8368,-0.1726,-0.2088
31.56,1.0198,-0.4467,9.033,0.8282,-0.3536,-0.2072
31.58,0.5075,0.2901,8.9701,0.4926,-0.3286,-0.179
31.6,0.2789,-0.1754,9.2007,0.156,-0.128,-0.1097
31.62,0.3146,0.0052,9.3287,-0.087,0.0596,-0.0569
31.64,0.4175,-0.0064,9.0864,-0.2481,0.1483,-0.0161
31.66,0.1047,-0.1215,9.5258,-0.235,0.1197,0.0057
31.68,0.0974,-0.1425,9.6774,-0.1625,-0.006,0.0162
31.7,0.0121,-0.2398,9.795,-0.0781,-0.0241,0.0088
31.72,0.247,-0.2366,9.8701,-0.0091,-0.0017,0.0075
31.74,0.4055,-0.1411,9.9436,0.0375,-0.0128,0.0209
31.76,0.4637,0.0211,9.9721,0.0145,0.0075,-0.0145
31.78,0.4934,-0.3854,9.6071,-0.0001,0.0198,-0.0215
31.8,0.3292,-0.5288,9.5392,0.0069,-0.0104,0.0125
31.82,-0.0899,0.0223,9.7126,-0.0166,-0.0106,-0.0201
31.84,0.3635,0.0009,9.64,0.0045,0.0217,-0.002
31.86,0.4141,-0.1431,9.8745,-0.0039,-0.0188,0.0147
31.88,0.3697,-0.076,10.1345,0.0359,-0.0059,0.0286
31.9,0.3548,-0.0104,9.8657,0.1048,0.0146,0.0125
31.92,0.4726,0.0101,9.5695,0.1449,0.0758,0.0046
31.94,0.3418,0.0018,9.5445,0.1874,0.0859,-0.0001
31.96,0.0003,-0.2352,9.5099,0.1332,0.1149,-0.0269
31.98,0.1655,0.1258,9.3107,0.0104,0.0007,-0.0563
32.0,0.3735,-0.3115,9.3771,-0.3097,-0.2016,-0.1236
32.02,-0.0887,0.0058,9.0592,-0.5756,-0.2957,-0.1699
32.04,-0.5063,0.045,9.1104,-0.7437,-0.2166,-0.1932
32.06,-0.7483,0.3647,10.4604,-0.6451,0.0507,-0.1481
32.08,-0.4673,0.2646,11.8239,-0.3661,0.3181,-0.0589
32.1,0.4412,0.3406,12.0087,0.1378,0.4164,0.0076
32.12,1.4536,0.2616,11.3274,0.4928,0.2631,0.1055
32.14,1.3637,0.2547,9.781,0.701,-0.0704,0.1615
32.16,0.8525,0.037,8.8139,0.668,-0.2861,0.1735
32.18,0.6547,-0.0398,9.3187,0.4523,-0.2829,0.1451
32.2,0.1188,-0.0558,9.0664,0.1709,-0.1248,0.0815
32.22,0.6917,-0.0394,9.3131,-0.0466,0.0455,0.0547
32.24,0.197,-0.3532,9.2954,-0.1747,0.1269,0.0015
32.26,0.2529,-0.3321,9.5752,-0.2161,0.1483,-0.0326
32.28,0.3504,0.0283,9.8143,-0.0953,0.0599,-0.0354
32.3,0.192,-0.3906,9.9199,-0.0645,-0.0052,-0.02
32.32,0.4136,-0.16,9.7097,-0.052,-0.0384,-0.0219
32.34,0.5211,-0.017,9.7091,0.0103,-0.0155,0.0019
32.36,0.6701,-0.006,10.0496,-0.05,-0.0293,-0.0019
32.38,0.444,0.1917,9.9169,0.0189,-0.0023,-0.0117
32.4,0.269,-0.0448,9.8576,-0.0175,-0.0157,-0.0175
32.42,0.4106,-0.1594,9.9348,0.0223,-0.0196,-0.0231
32.44,0.5343,-0.37,9.6362,0.0755,-0.0241,-0.0346
32.46,0.3905,-0.0383,9.578,0.1685,0.0658,-0.0286
32.48,0.6037,-0.2783,9.663,0.2049,0.0942,-0.0183
32.5,0.4712,-0.0692,9.3111,0.2133,0.1541,-0.0059
32.52,0.2248,0.0467,9.2316,0.0338,0.0674,0.0423
32.54,0.0761,-0.2269,8.9737,-0.2731,-0.1892,0.1177
32.56,-0.1949,-0.1511,9.0134,-0.6058,-0.3515,0.1727
32.58,-0.7509,-0.3228,9.0057,-0.8854,-0.3643,0.219
32.6,-1.091,-0.5638,9.9712,-0.9024,-0.0544,0.1938
32.62,-0.9259,-0.5949,11.6248,-0.5907,0.3225,0.1193
32.64,0.0047,-0.7329,12.3148,-0.0655,0.5607,0.0139
32.66,0.9883,-0.6363,12.1519,0.4651,0.436,-0.1066
32.68,1.6422,-0.3802,10.5458,0.8268,0.0438,-0.168
32.7,1.3264,-0.2218,9.2191,0.8693,-0.274,-0.2173
32.72,0.7721,-0.2528,8.872,0.6802,-0.3943,-0.2017
32.74,-0.0341,-0.3366,9.1358,0.368,-0.2506,-0.1687
32.76,0.099,-0.2516,8.967,0.022,-0.0067,-0.0886
32.78,-0.1152,-0.4317,9.1938,-0.189,0.1497,-0.0058
32.8,-0.1533,-0.356,9.5357,-0.2707,0.1583,0.0025
32.82,-0.0639,-0.2526,9.3701,-0.175,0.0728,0.0404
32.84,-0.0661,-0.335,10.1159,-0.1317,0.0006,0.0226
32.86,0.1965,-0.4135,9.7886,-0.0555,-0.0212,0.0088
32.88,-0.0661,-0.1679,9.8274,0.0273,-0.0314,0.0311
32.9,0.0755,-0.2046,9.8599,0.0242,0.0116,0.0127
32.92,0.3284,-0.5256,9.8452,0.0142,-0.0137,-0.0023
32.94,0.3228,-0.8057,9.8323,0.0223,-0.0114,0.0071
32.96,0.0433,-0.3538,10.0468,0.0165,-0.0387,0.0173
32.98,0.137,-0.1782,9.7228,0.0706,-0.0118,0.0189
33.0,0.3734,-0.3004,9.7045,0.1397,0.0266,0.0325
33.02,0.293,-0.2531,9.4006,0.1957,0.085,0.0332
33.04,0.4333,-0.548,9.1891,0.2029,0.1354,0.0004
33.06,0.1378,-0.6741,9.0531,0.1183,0.0961,-0.0503
33.08,-0.0461,-0.5035,8.8895,-0.1616,-0.1165,-0.1157
33.1,-0.1761,-0.6291,8.8237,-0.4987,-0.3163,-0.1521
33.12,-0.3719,-0.235,8.827,-0.7916,-0.3724,-0.2139
33.14,-1.3469,-0.0273,9.6204,-0.8693,-0.1678,-0.1871
33.16,-1.0214,-0.1273,11.5458,-0.6913,0.2023,-0.1354
33.18,-0.2982,-0.0864,12.4142,-0.2356,0.5084,-0.0274
33.2,0.7892,-0.0184,12.5159,0.2972,0.4452,0.0782
33.22,1.7026,0.008,11.2646,0.7486,0.1531,0.1412
33.24,1.4823,-0.2146,9.3241,0.8839,-0.2113,0.1891
33.26,0.8491,-0.533,8.9693,0.7593,-0.3991,0.1815
33.28,0.3054,-0.3196,8.9277,0.4389,-0.2711,0.1627
33.3,0.2742,-0.3587,9.1483,0.108,-0.0995,0.0745
33.32,0.0927,-0.6621,9.2298,-0.0714,0.1273,0.0392
33.34,-0.0202,-0.564,9.3194,-0.2048,0.1842,-0.0055
33.36,0.0393,-0.3325,9.5841,-0.2321,0.0998,-0.0279
33.38,-0.0213,-0.1133,9.6718,-0.1208,0.0186,-0.0507
33.4,0.0709,-0.3159,9.7423,-0.064,-0.0424,-0.0292
33.42,0.3474,-0.6812,9.865,-0.0069,-0.0335,-0.0107
33.44,0.2298,-0.2832,9.8896,-0.0002,-0.0276,-0.0276
33.46,0.4005,-0.2136,9.9384,0.0302,0.0166,0.0147
33.48,0.1086,-0.3374,9.7497,0.0267,0.008,-0.0052
33.5,0.3376,-0.5454,9.561,0.0088,-0.0189,0.003
33.52,0.1072,-0.0925,9.5667,-0.0196,0.0086,0.0001
33.54,0.3236,-0.1014,9.756,-0.0016,-0.0011,-0.0014
33.56,0.0752,-0.2182,10.0041,0.0284,-0.0477,0.0015
33.58,0.3856,-0.1642,9.8201,0.1056,-0.0026,-0.0248
33.6,0.1148,-0.4548,9.7301,0.1877,0.0207,-0.015
33.62,0.461,-0.3851,9.6287,0.1756,0.0934,-0.0289
33.64,0.2458,-0.0711,9.4567,0.2494,0.1413,0.0031
33.66,0.0942,0.0874,9.1988,0.0955,0.0395,0.0299
33.68,0.1278,-0.0803,9.3257,-0.191,-0.1215,0.1342
33.7,-0.0982,0.209,8.801,-0.5563,-0.328,0.1844
33.72,-0.4267,-0.1182,8.9818,-0.8378,-0.3749,0.1989
33.74,-0.9919,-0.2381,9.627,-0.9057,-0.1143,0.1822
33.76,-0.5544,-0.5556,11.504,-0.6471,0.3,0.1456
33.78,0.2323,-0.4337,12.5304,-0.1106,0.5122,0.0541
33.8,0.8762,-0.8132,11.9925,0.3648,0.4394,-0.0713
33.82,2.1474,-0.3515,11.0785,0.7845,0.094,-0.1982
33.84,1.5145,-0.0164,9.047,0.9211,-0.2356,-0.1984
33.86,0.5095,-0.1563,8.9301,0.7314,-0.3978,-0.2011
33.88,0.5044,0.0222,8.9776,0.3987,-0.2493,-0.1608
33.9,0.4036,-0.0617,9.1471,0.0496,-0.0613,-0.0759
33.92,0.2751,0.0072,9.4118,-0.157,0.1325,-0.0046
33.94,0.2186,0.0306,9.7783,-0.2517,0.1281,0.0136
33.96,-0.1954,0.0109,9.5693,-0.2092,0.0927,0.0449
33.98,0.0989,0.2885,9.8805,-0.1443,-0.0108,0.0332
34.0,0.3454,0.1098,9.8862,-0.0437,-0.0212,0.0438
34.02,0.2267,0.0438,9.9313,-0.0115,-0.0393,0.0211
34.04,0.4078,-0.5051,9.8067,0.0177,-0.0044,-0.0058
34.06,0.5224,-0.4399,9.4758,-0.0006,0.0045,0.0086
34.08,0.2804,-0.0506,9.6897,0.0276,0.026,0.0056
34.1,0.489,-0.2099,9.9111,-0.0324,-0.0136,0.0013
34.12,0.2252,-0.1381,9.8289,0.0365,-0.0223,0.0069
34.14,0.4486,-0.2353,9.7367,0.0777,-0.0066,0.0288
34.16,0.4916,0.0781,9.7684,0.0652,-0.0116,0.0348
34.18,0.5863,0.153,9.6949,0.1767,0.0604,0.0248
34.2,0.6645,-0.1691,9.3831,0.194,0.1644,0.0044
34.22,0.204,-0.2263,9.1906,0.24,0.1387,-0.0122
34.24,0.5021,-0.394,9.3176,0.0215,0.0475,-0.097
34.26,0.4858,-0.3016,9.1069,-0.2613,-0.1791,-0.1258
34.28,0.0736,-0.3754,8.8873,-0.6019,-0.3732,-0.19
34.3,-0.5391,0.0915,8.9819,-0.8695,-0.347,-0.2038
34.32,-1.0113,0.0076,10.135,-0.8422,-0.0197,-0.2037
34.34,-0.6237,0.1506,11.5888,-0.5569,0.3425,-0.1146
34.36,0.38,0.2461,13.1964,-0.0511,0.5265,-0.0247
34.38,1.3574,0.4365,12.2667,0.5173,0.3983,0.1077
34.4,1.9344,0.2329,9.8903,0.8169,0.0432,0.181
34.42,1.2429,0.025,8.965,0.8984,-0.3115,0.2307
34.44,0.6563,-0.6721,8.6599,0.6719,-0.3584,0.1532
34.46,0.3453,-0.6023,8.9021,0.3378,-0.2188,0.1338
34.48,0.198,-0.2637,9.1832,-0.0108,-0.0083,0.0729
34.5,0.2354,-0.6181,9.5404,-0.2128,0.151,0.028
34.52,0.2238,-0.3613,9.4463,-0.2473,0.1542,-0.0177
34.54,-0.104,-0.2203,9.6767,-0.192,0.0849,-0.0326
34.56,0.3616,-0.4054,9.7285,-0.1332,-0.0292,-0.0388
34.58,0.1322,-0.3195,9.9294,-0.0127,-0.0494,-0.0044
34.6,0.2138,-0.5083,9.7543,0.0001,-0.0321,-0.0077
34.62,0.4036,-0.3997,9.8186,-0.0103,-0.0341,-0.025
34.64,0.4211,-0.5124,9.836,0.0364,-0.0174,-0.0115
34.66,0.4405,-0.413,9.9142,0.0041,-0.009,-0.0248
34.68,0.4866,-0.4205,9.7334,0.0887,-0.0242,-0.0106
34.7,0.0912,-0.6113,9.5799,0.1634,0.0447,-0.0222
34.72,0.6102,-0.3213,9.4166,0.1959,0.1365,0.0007
34.74,0.4646,-0.3924,9.3724,0.2388,0.1497,0.0072
34.76,0.065,-0.3757,9.0709,0.0828,0.0802,0.0538
34.78,-0.0501,-0.1995,8.8795,-0.1796,-0.1874,0.1053
34.8,0.3094,-0.3824,8.8981,-0.5724,-0.3598,0.1597
34.82,-0.6795,-0.5185,8.8439,-0.8314,-0.3354,0.1944
34.84,-0.8926,-0.9203,9.6533,-0.8259,-0.0895,0.1794
34.86,-0.7551,-0.6894,11.66,-0.5829,0.2787,0.1294
34.88,-0.0384,-0.5152,12.386,-0.0958,0.4924,0.0195
34.9,1.3112,-0.9011,12.149,0.4367,0.395,-0.0768
34.92,1.6647,-0.5481,10.4999,0.7518,0.0843,-0.1657
34.94,1.4182,-0.6299,9.0023,0.8514,-0.2593,-0.2138
34.96,0.8116,-0.3996,9.0357,0.6354,-0.3337,-0.207
34.98,0.3586,-0.546,8.9541,0.3572,-0.2427,-0.1579
35.0,0.0189,-0.2425,9.0293,0.0116,0.0104,-0.0588
35.02,0.6244,-0.2374,9.0274,-0.1628,0.1349,-0.0333
35.04,0.2176,-0.2894,9.6605,-0.2768,0.1304,0.0077
35.06,0.0406,-0.3893,9.5867,-0.175,0.0786,0.0243
35.08,0.0146,-0.3503,9.9252,-0.1203,0.0186,0.0341
35.1,0.3262,-0.5322,10.3009,-0.0238,-0.0367,0.0301
35.12,0.4967,-0.3636,10.0854,0.0057,-0.0588,-0.0016
35.14,0.2578,-0.1394,9.9134,0.0324,-0.0508,0.0097
35.16,0.6849,-0.5641,10.0563,0.0878,-0.0225,0.0167
35.18,0.4738,-0.1752,9.6493,0.1413,0.0172,0.0525
35.2,0.3305,-0.5964,9.3769,0.2592,0.0919,0.039
35.22,0.6108,-0.7355,9.4594,0.2784,0.1585,0.0016
35.24,0.3139,-0.3765,9.0038,0.1866,0.133,-0.0238
35.26,0.3748,-0.22,8.9374,-0.0926,-0.0483,-0.0982
35.28,0.318,-0.5414,8.9449,-0.4376,-0.2944,-0.152
35.3,0.0689,0.0711,9.0613,-0.7892,-0.4442,-0.2093
35.32,-0.7494,-0.1397,9.1564,-0.9415,-0.2496,-0.2517
35.34,-0.7046,0.0544,10.9157,-0.8059,0.1255,-0.1602
35.36,-0.5981,0.1193,12.4869,-0.3917,0.5007,-0.0698
35.38,0.8838,0.0584,12.8783,0.2292,0.5423,0.0421
35.4,1.7364,-0.2694,11.4915,0.7279,0.2519,0.1705
35.42,1.468,0.0472,9.4514,0.9459,-0.1542,0.219
35.44,1.4252,-0.1896,8.8015,0.9076,-0.4071,0.2125
35.46,0.4707,-0.2234,8.7204,0.5664,-0.3816,0.1794
35.48,0.5023,-0.3977,8.9311,0.2113,-0.124,0.1268
35.5,0.4251,-0.4243,9.2875,-0.0876,0.0801,0.0379
35.52,0.3558,-0.408,9.4127,-0.2482,0.1752,0.002
35.54,0.2039,-0.3069,9.4899,-0.2308,0.0986,-0.0219
35.56,0.1221,-0.0058,9.6901,-0.1702,0.0377,0.0068
35.58,0.4321,-0.1494,10.0596,-0.0726,-0.0127,-0.0188
35.6,0.1546,-0.0755,9.8586,-0.0416,-0.0288,-0.0173
35.62,0.313,-0.1856,9.9387,-0.0094,-0.0255,-0.0232
35.64,0.5581,-0.2694,9.5776,0.0465,0.0322,0.0043
35.66,0.7112,-0.0604,9.6374,0.0034,0.013,-0.007
35.68,0.5502,-0.2805,9.6493,-0.0251,0.0211,0.0106
35.7,0.372,-0.423,9.7857,0.0104,-0.0142,0.0094
35.72,0.6902,-0.2764,9.9875,0.0236,-0.0142,-0.0061
35.74,0.1253,-0.3246,9.7634,0.0141,-0.0329,-0.0066
35.76,0.8285,-0.1226,9.7575,0.1196,0.0214,-0.0393
35.78,0.5905,0.1517,9.5,0.1859,0.0679,-0.0443
35.8,0.5038,-0.1882,9.1288,0.2826,0.1457,-0.0248
35.82,0.5481,-0.166,9.0575,0.2197,0.1455,0.0231
35.84,0.5822,0.1573,9.1003,0.0291,-0.0128,0.0844
35.86,0.5973,-0.087,9.1089,-0.3299,-0.1932,0.1253
35.88,0.0014,0.1653,9.0113,-0.6904,-0.388,0.1935
35.9,-0.3872,-0.2315,8.9389,-0.8932,-0.3582,0.2238
35.92,-0.8738,-0.2377,10.0975,-0.8856,0.0129,0.2025
35.94,-0.23,-0.3384,12.1008,-0.5232,0.4101,0.1094
35.96,0.2953,-0.8499,13.1008,0.0146,0.578,-0.0237
35.98,1.7584,-0.5287,11.6057,0.5272,0.3822,-0.1139
36.0,2.0884,-0.6219,10.1854,0.8765,-0.0148,-0.1838
36.02,1.6931,-0.4173,9.2053,0.9313,-0.3444,-0.2081
36.04,0.5951,-0.3396,8.8284,0.6105,-0.3874,-0.1879
36.06,0.1803,-0.1682,8.8717,0.2922,-0.1977,-0.1306
36.08,0.4368,0.0129,9.1504,-0.0142,0.0333,-0.0708
36.1,0.4216,0.0832,9.1781,-0.248,0.1602,-0.03
36.12,0.4398,-0.1101,9.1776,-0.2727,0.1477,0.0264
36.14,0.4209,-0.0942,9.5911,-0.184,0.0767,0.0464
36.16,0.1218,0.0041,9.8556,-0.0767,-0.0038,0.025
36.18,0.555,0.002,10.0056,-0.0257,-0.038,0.0516
36.2,0.5925,0.0388,9.9725,0.0089,-0.0429,0.0086
36.22,0.7822,0.0452,9.7717,0.0147,-0.0227,0.0011
36.24,0.5568,-0.0784,9.6828,-0.0076,0.0057,-0.009
36.26,0.7517,-0.3293,9.6708,0.0212,-0.0093,0.005
36.28,0.0507,-0.1554,9.7538,-0.0271,-0.0081,-0.0003
36.3,0.391,-0.2147,9.8882,-0.0174,-0.0298,0.0015
36.32,0.8357,-0.4621,9.7711,0.0084,-0.0439,0.0117
36.34,0.3229,0.0033,9.9406,0.0742,-0.0301,0.029
36.36,0.597,-0.3743,9.6169,0.1538,-0.0009,0.0333
36.38,0.5181,-0.3016,9.4303,0.1918,0.1038,0.025
36.4,0.7708,-0.3971,9.5218,0.2112,0.1134,-0.0108
36.42,0.6288,-0.522,9.0204,0.1171,0.057,-0.0408
36.44,0.5886,-0.5342,9.2941,-0.15,-0.1008,-0.1112
36.46,0.1263,-0.233,8.8124,-0.4639,-0.3079,-0.1581
36.48,-0.1707,-0.0023,9.1264,-0.7451,-0.3346,-0.1683
36.5,-0.8943,-0.0591,9.2933,-0.8276,-0.1092,-0.1904
36.52,-1.1186,-0.1169,11.1858,-0.6224,0.2245,-0.1442
36.54,0.0585,0.0978,12.6285,-0.1501,0.4783,-0.0417
36.56,1.1564,-0.147,12.604,0.3466,0.4201,0.057
36.58,1.4343,-0.0381,10.3065,0.7466,0.1106,0.1493
36.6,1.0475,-0.5126,9.0751,0.8117,-0.2271,0.2149
36.62,0.9563,-0.8128,9.0253,0.6732,-0.3621,0.1672
36.64,0.0055,-0.5814,9.0386,0.4059,-0.2911,0.132
36.66,0.3495,-0.5958,9.4254,0.0696,-0.0397,0.0583
36.68,0.5082,-0.467,9.2057,-0.1293,0.0947,0.0168
36.7,0.1697,-0.7666,9.3824,-0.1962,0.1756,-0.0023
36.72,0.472,-0.4531,9.639,-0.1867,0.0563,-0.0366
36.74,0.1738,-0.4596,9.9976,-0.126,0.0169,-0.0233
36.76,0.267,-0.4138,9.7444,-0.067,-0.0223,-0.0175
36.78,0.2387,-0.4904,9.8579,0.0076,0.0139,0.0093
36.8,0.4232,-0.5417,9.7497,0.0514,0.0025,0.0056
36.82,0.235,-0.5752,9.8166,-0.0016,-0.0083,0.0048
36.84,0.3156,-0.5013,9.6441,-0.0322,-0.0047,0.0007
36.86,0.4206,-0.7031,9.9218,0.0048,-0.0344,-0.0203
36.88,0.3302,-0.7013,9.8587,0.0971,-0.0371,-0.0098
36.9,0.3776,-0.6945,9.7803,0.1543,-0.0055,-0.0588
36.92,0.8575,-0.2981,10.062,0.2282,0.0635,-0.0397
36.94,0.7247,-0.2366,9.4894,0.263,0.1518,-0.0242
36.96,0.3827,-0.0292,9.0821,0.1982,0.1409,0.0199
36.98,0.4134,-0.6623,9.0701,-0.0282,0.0087,0.0864
37.0,0.0722,-0.5894,9.0693,-0.3386,-0.2824,0.1481
37.02,-0.1721,-0.6272,8.7561,-0.7523,-0.3971,0.1903
37.04,-0.9357,-0.6956,9.0496,-0.9154,-0.3143,0.2172
37.06,-1.3715,-0.5746,10.1592,-0.8196,0.0552,0.2049
37.08,-0.4337,-0.4764,12.1935,-0.4553,0.4635,0.0861
37.1,0.6802,-0.5763,13.3203,0.1168,0.5445,-0.0065
37.12,1.4637,-0.8952,11.2762,0.6376,0.3299,-0.1345
37.14,1.6473,-0.5028,9.7554,0.9497,-0.0885,-0.209
37.16,1.1956,-0.4398,8.8695,0.8961,-0.3855,-0.2248
37.18,0.6818,0.0626,8.9061,0.6132,-0.3759,-0.1702
37.2,0.7313,-0.39,8.9922,0.2741,-0.2106,-0.1403
37.22,0.3605,-0.2646,9.2753,-0.0664,0.071,-0.077
37.24,0.4811,-0.0436,9.3302,-0.2398,0.1652,-0.0092
37.26,0.3342,0.0351,9.4915,-0.2312,0.122,0.0058
37.28,0.4244,-0.2923,9.6829,-0.1835,0.0592,0.0311
37.3,0.447,-0.0919,9.8883,-0.0711,-0.0021,0.0389
37.32,0.3671,-0.2293,10.0183,-0.0107,-0.0196,0.0126
37.34,0.2933,-0.2088,9.8669,0.0543,-0.0127,0.0155
37.36,0.437,-0.2438,9.9274,0.0317,-0.0177,-0.0014
37.38,0.6501,-0.0597,9.7933,0.0082,-0.0081,-0.0103
37.4,0.3813,-0.2212,9.8322,0.0006,0.003,-0.0035
37.42,0.5908,-0.1891,9.7942,-0.0156,-0.0225,-0.02
37.44,0.3264,-0.0897,9.7005,0.0426,0.0042,0.0251
37.46,0.4279,-0.2525,10.0559,-0.0179,-0.0258,0.0131
37.48,0.6274,-0.3102,9.9835,0.1012,-0.0435,0.0141
37.5,0.5568,0.1197,9.6582,0.1843,0.0212,0.0439
37.52,0.4594,-0.4428,9.4349,0.2534,0.1118,0.0112
37.54,0.4531,-0.4745,9.1917,0.284,0.1646,0.0078
37.56,0.4351,-0.1462,9.2709,0.1407,0.0826,-0.0307
37.58,0.2906,0.0195,8.775,-0.1763,-0.1135,-0.1357
37.6,0.3568,-0.1623,8.655,-0.5363,-0.3961,-0.1847
37.62,-0.2238,-0.4427,8.8446,-0.8936,-0.4394,-0.2316
37.64,-0.7255,0.0146,9.2699,-1.012,-0.1924,-0.215
37.66,-1.2111,0.2011,11.0699,-0.7822,0.2634,-0.1878
37.68,-0.1174,0.2282,13.0637,-0.2734,0.5769,-0.0412
37.7,1.3525,0.1874,13.3487,0.3646,0.5512,0.1006
37.72,1.7974,0.1458,10.9299,0.8502,0.1742,0.1805
37.74,1.8833,0.3061,9.2827,1.0606,-0.2768,0.247
37.76,1.19,-0.266,8.7728,0.8771,-0.411,0.2355
37.78,0.6349,-0.025,8.6461,0.498,-0.3353,0.1741
37.8,0.4565,-0.3891,8.7114,0.1102,-0.1023,0.0946
37.82,0.5966,-0.3355,9.1909,-0.1468,0.1232,0.0495
37.84,0.546,-0.1913,9.3481,-0.2662,0.1615,0.0048
37.86,0.4836,-0.3555,9.5906,-0.2462,0.0882,-0.0196
37.88,0.7019,-0.2647,9.8123,-0.136,0.0123,-0.0309
37.9,0.3551,-0.1868,10.119,-0.0618,-0.0482,-0.0355
37.92,0.6562,-0.185,10.0125,-0.0388,-0.0549,0.0057
37.94,0.5769,-0.1301,9.8306,0.0331,-0.0415,-0.0011
37.96,0.6143,0.008,9.5507,0.0109,-0.0253,-0.0127
37.98,0.4472,-0.2613,9.7081,0.0004,0.0243,-0.005
38.0,0.2409,-0.3532,10.0483,0.0277,-0.0232,-0.0163
38.02,0.7487,-0.0505,9.8649,0.0166,-0.0493,-0.0189
38.04,0.5647,-0.4811,9.8309,0.1044,-0.009,-0.0444
38.06,0.9017,-0.1944,9.4737,0.207,0.0673,-0.0347
38.08,0.9984,-0.0213,9.503,0.2837,0.124,-0.0327
38.1,0.3891,-0.2255,9.4103,0.2323,0.165,-0.0145
38.12,0.4778,0.0387,9.1848,0.1098,0.0591,0.0464
38.14,0.4944,-0.1499,9.0619,-0.2407,-0.1646,0.1279
38.16,0.2911,-0.4496,8.947,-0.6419,-0.3948,0.1874
38.18,-0.6477,-0.1786,8.9932,-0.9418,-0.3936,0.2625
38.2,-0.6543,-0.5874,9.7895,-0.9852,-0.125,0.2173
38.22,-1.1546,-0.7749,11.5983,-0.6587,0.3628,0.1242
38.24,0.3944,-0.8934,13.0597,-0.0847,0.5964,0.0339
38.26,1.6486,-0.8918,12.7673,0.4575,0.4603,-0.1044
38.28,1.5555,-0.6336,10.2459,0.9072,0.0592,-0.1829
38.3,1.5572,-0.5823,9.1148,0.9925,-0.296,-0.256
38.32,0.9037,-0.3071,8.8977,0.7682,-0.4151,-0.2135
38.34,0.3248,-0.2956,8.7303,0.4184,-0.3003,-0.1725
38.36,0.4556,-0.4595,8.9975,0.0293,-0.0239,-0.0945
38.38,0.418,-0.2478,9.2836,-0.1511,0.1612,-0.0056
38.4,0.0435,-0.4555,9.4614,-0.2621,0.1398,0.0299
38.42,0.238,-0.2639,9.4958,-0.2511,0.0867,0.0497
38.44,0.4131,-0.3423,9.5539,-0.1144,-0.008,0.0456
38.46,0.2324,-0.3627,9.9586,-0.0359,-0.0487,0.0138
38.48,0.4939,-0.4239,10.06,-0.0196,-0.0075,0.0218
38.5,0.3298,-0.3668,9.6442,0.0082,-0.0054,-0.0009
38.52,0.4527,-0.522,9.6124,-0.0183,-0.0101,-0.0114
38.54,0.3365,-0.4765,9.8465,0.0093,-0.0093,-0.005
38.56,0.2008,-0.6668,9.8068,0.0083,-0.0216,0.0036
38.58,0.4479,-0.5988,10.0775,0.0404,-0.0752,0.0184
38.6,0.7966,-0.7046,9.8641,0.1087,-0.0042,0.024
38.62,0.7404,-0.6903,9.8698,0.2223,0.0842,0.0426
38.64,0.4541,-0.5131,9.3683,0.2817,0.1307,0.0031
38.66,0.5427,-0.5347,9.2392,0.2456,0.2107,-0.0276
38.68,0.3146,-0.6501,9.2022,0.0677,0.0175,-0.0905
38.7,0.1855,-0.6735,8.5601,-0.2865,-0.2196,-0.1463
38.72,0.0899,-0.4035,8.5914,-0.6661,-0.4254,-0.2016
38.74,-0.4614,-0.2749,8.9314,-0.9663,-0.3818,-0.2451
38.76,-1.3178,-0.3946,9.9417,-0.9279,-0.049,-0.1982
38.78,-0.8811,-0.1551,11.9948,-0.6709,0.3804,-0.1288
38.8,0.0752,-0.3174,13.7205,-0.0782,0.6442,0.0137
38.82,1.2937,-0.2145,11.9461,0.5056,0.479,0.1221
38.84,1.4637,-0.1071,10.4932,0.9384,0.0182,0.1943
38.86,1.556,-0.214,8.7848,1.0318,-0.3473,0.231
38.88,1.0701,-0.6035,8.7261,0.7559,-0.4443,0.2391
38.9,0.7586,-0.6767,8.8512,0.4098,-0.2422,0.1553
38.92,0.3688,-0.7347,9.1739,-0.018,-0.0147,0.0617
38.94,0.1711,-0.425,9.1184,-0.1947,0.1499,0.0228
38.96,0.2987,-0.3723,9.2821,-0.2682,0.1654,-0.016
38.98,0.4814,-0.2285,9.5928,-0.2396,0.0809,-0.0273
39.0,0.4192,-0.6136,9.9466,-0.0866,0.0138,-0.0399
39.02,0.2629,-0.4041,9.9773,-0.0212,-0.0428,-0.0256
39.04,0.4149,-0.3593,10.1158,-0.0082,-0.0231,-0.0294
39.06,0.4331,-0.3297,9.734,0.0023,-0.011,-0.0009
39.08,0.0921,-0.0472,9.7581,0.0055,0.0224,0.005
39.1,0.1572,-0.488,9.8356,0.0055,-0.0255,-0.0352
39.12,0.3551,0.0002,9.8415,0.0098,-0.0183,-0.0063
39.14,0.5091,-0.3625,9.9684,0.0114,-0.0337,-0.007
39.16,0.4575,-0.483,9.8729,0.1135,-0.0453,-0.0282
39.18,0.7041,-0.2527,9.6524,0.1637,0.0128,-0.025
39.2,0.7585,-0.2604,9.6869,0.2299,0.1241,-0.0153
39.22,0.685,-0.1185,9.6035,0.2858,0.1964,0.0109
39.24,0.2358,-0.3485,8.9757,0.1411,0.1039,0.028
39.26,0.5116,0.0465,9.0641,-0.1363,-0.1127,0.1205
39.28,0.1891,-0.3733,8.7259,-0.5718,-0.3604,0.1923
39.3,-0.2302,-0.4471,8.6896,-0.8935,-0.4296,0.2307
39.32,-0.4286,-0.3555,9.6462,-1.023,-0.1602,0.2426
39.34,-0.8408,-0.3944,11.5935,-0.8148,0.2699,0.172
39.36,-0.0675,-0.4456,12.8845,-0.2416,0.5753,0.0451
39.38,1.4486,-0.4458,12.2746,0.3798,0.5586,-0.0803
39.4,1.8344,-0.3468,11.1091,0.8796,0.1761,-0.1813
39.42,2.1739,-0.1749,9.3079,1.0355,-0.2415,-0.2374
39.44,1.0945,-0.0444,8.8901,0.8478,-0.4332,-0.2546
39.46,0.9972,-0.2918,8.9332,0.4968,-0.3442,-0.1998
39.48,0.3477,0.1823,8.9721,0.1175,-0.0959,-0.1121
39.5,0.6082,0.1224,9.2656,-0.1671,0.134,-0.0342
39.52,0.2435,-0.0207,9.5951,-0.2814,0.1618,-0.0057
39.54,0.3349,-0.2027,9.4464,-0.2517,0.1,0.0329
39.56,0.2464,-0.1935,9.786,-0.1228,0.004,0.0492
39.58,0.3369,-0.1394,10.0928,-0.0862,-0.0181,0.0314
39.6,0.5229,-0.2392,10.0783,-0.015,-0.0555,0.0273
39.62,0.393,-0.2177,9.9368,-0.0031,-0.007,0.0026
39.64,0.5646,-0.09,10.0193,0.0277,-0.0458,0.0028
39.66,0.5411,-0.1516,9.9648,-0.0163,0.0134,0.0368
39.68,0.453,-0.2573,9.922,0.0333,-0.0587,0.0066
39.7,0.5959,-0.4004,9.905,0.0806,-0.0252,0.0312
39.72,0.8141,-0.1923,9.5867,0.1828,0.0259,0.0277
39.74,0.8391,-0.338,9.4146,0.2262,0.1289,0.0286
39.76,0.6799,-0.18,8.9999,0.2869,0.1944,0.0146
39.78,0.7842,-0.4923,9.271,0.1665,0.1141,-0.0173
39.8,0.6846,-0.1312,8.7836,-0.1095,-0.0891,-0.1219
39.82,0.2745,-0.4481,8.7059,-0.5599,-0.3532,-0.1933
39.84,-0.2092,-0.3663,8.6963,-0.8862,-0.4346,-0.2634
39.86,-0.952,-0.0869,9.178,-1.0351,-0.2158,-0.2442
39.88,-0.8988,0.2007,11.4801,-0.8153,0.243,-0.1699
39.9,-0.3438,0.2583,12.9355,-0.3437,0.5666,-0.0666
39.92,0.7164,0.254,12.9957,0.3121,0.575,0.0494
39.94,1.8534,0.1844,11.5461,0.8472,0.2022,0.1571
39.96,1.8518,-0.0737,9.2567,1.064,-0.2223,0.2451
39.98,1.1612,-0.4231,8.5805,0.897,-0.4315,0.2301
40.0,0.6835,-0.5205,8.8979,0.5197,-0.3447,0.1861
40.02,0.5117,-0.5207,9.1248,0.1681,-0.0992,0.133
40.04,0.0805,-0.4481,9.208,-0.123,0.1179,0.0524
40.06,0.0852,-0.5863,9.3613,-0.2298,0.1884,0.0012
40.08,0.0227,-0.4113,9.1994,-0.2354,0.1212,-0.0339
40.1,-0.0135,-0.4672,9.5913,-0.1774,0.0211,-0.0331
40.12,0.3572,-0.1799,9.8316,-0.0681,-0.0236,-0.0268
40.14,0.2639,-0.3584,9.6976,-0.0256,-0.0466,-0.0136
40.16,0.1277,-0.7573,9.2462,0.0664,-0.0509,-0.0213
40.18,0.5517,0.0188,10.1398,0.0022,0.0144,0.0089
40.2,0.5119,-0.3877,9.6311,-0.0225,-0.0059,0.0022
40.22,0.5611,-0.3713,9.917,-0.0089,-0.0014,-0.0137
40.24,0.6484,-0.2657,10.2914,0.0052,-0.0058,-0.0186
40.26,0.3214,-0.4954,9.9729,0.0634,-0.045,-0.0108
40.28,0.6252,-0.3456,10.028,0.0978,-0.009,-0.0125
40.3,0.0375,-0.6266,9.234,0.1437,0.053,-0.0145
40.32,0.6879,-0.3222,9.9797,0.1941,0.1232,-0.0278
40.34,0.6692,-0.3466,9.4478,0.1813,0.1451,0.0224
40.36,0.4177,-0.5408,9.3294,0.0343,0.0498,0.0563
40.38,0.2277,-0.0054,9.4532,-0.2357,-0.1685,0.099
40.4,0.0919,-0.5903,9.04,-0.5292,-0.3404,0.1959
40.42,-0.4162,-0.6062,9.0425,-0.767,-0.3073,0.1828
40.44,-0.9122,-0.674,9.7545,-0.7351,-0.0389,0.1698
40.46,-0.6537,-0.6488,11.2106,-0.5034,0.3087,0.1121
40.48,0.1543,-0.7037,12.5053,-0.069,0.4685,0.0004
40.5,1.405,-0.9888,11.913,0.4575,0.358,-0.0804
40.52,1.531,-0.8206,10.02,0.7402,0.0196,-0.1454
40.54,1.2105,-0.5724,9.1497,0.8102,-0.2887,-0.1652
40.56,0.7913,-0.3859,9.1397,0.599,-0.3595,-0.1475
40.58,0.3677,-0.6785,9.3333,0.2981,-0.2228,-0.1163
40.6,0.5409,-0.496,9.2517,0.0175,0.0291,-0.0688
40.62,0.5008,-0.5767,9.3201,-0.1666,0.0973,-0.0069
40.64,0.3244,-0.2406,9.6519,-0.2218,0.1376,0.015
40.66,-0.0766,-0.4357,9.5141,-0.1498,0.0514,0.0089
40.68,-0.109,-0.4293,9.7856,-0.1124,0.0044,0.024
40.7,0.2636,-0.6582,10.0399,-0.0495,-0.0276,0.0189
40.72,0.3623,-0.3771,10.0524,-0.013,-0.0148,0.0304
40.74,0.3449,-0.5818,9.7755,-0.007,-0.0194,0.0104
40.76,0.5258,-0.4997,9.4023,0.0205,0.0311,0.0038
40.78,0.4477,-0.5469,9.6123,-0.0222,0.0205,0.0118
40.8,0.4803,-0.5183,9.7916,-0.0003,0.0207,-0.0057
40.82,0.2561,-0.6287,9.8072,0.0411,-0.0116,0.0173
40.84,0.2861,-0.5065,9.9798,0.0433,-0.015,0.0071
40.86,0.4004,-0.209,10.121,0.0097,-0.0624,0.0199
40.88,0.471,-0.4653,9.5981,0.0798,-0.0237,0.0155
40.9,0.5758,-0.3936,9.972,0.1811,0.0521,0.0212
40.92,0.7795,-0.6115,9.2268,0.2348,0.1519,0.0441
40.94,0.3426,-0.4797,9.577,0.2683,0.1387,0.0019
40.96,0.5391,-0.2443,9.1662,0.1151,0.0542,-0.0516
40.98,0.3644,-0.5308,9.11,-0.1841,-0.1218,-0.1218
41.0,-0.0418,-0.0419,8.6537,-0.5427,-0.3704,-0.1864
41.02,-0.1611,0.0942,8.9167,-0.8592,-0.3887,-0.2257
41.04,-0.7859,-0.2025,9.5769,-0.8845,-0.1198,-0.2035
41.06,-0.9194,0.0042,11.1645,-0.6241,0.2836,-0.1477
41.08,-0.0718,-0.0896,12.9511,-0.1825,0.5758,-0.0479
41.1,1.5731,0.1032,12.8064,0.3926,0.4808,0.0597
41.12,1.9407,-0.2373,10.4174,0.8467,0.089,0.1925
41.14,1.8014,-0.3736,9.2003,0.9557,-0.2748,0.2306
41.16,1.1924,-0.2493,8.7493,0.7857,-0.3804,0.206
41.18,0.8401,-0.8178,8.7782,0.4049,-0.2701,0.1446
41.2,0.3727,-0.3425,9.2044,0.0822,-0.0364,0.0896
41.22,0.1772,-0.2735,9.1396,-0.1513,0.1636,0.0364
41.24,0.3443,-0.5581,9.5203,-0.2823,0.1485,-0.0182
41.26,0.0686,-0.3099,9.7778,-0.1912,0.0947,-0.0623
41.28,0.4008,-0.2766,9.5951,-0.1281,0.0307,-0.0164
41.3,0.4633,-0.2093,9.8444,-0.0733,-0.0219,-0.0174
41.32,0.3005,-0.1151,9.9905,-0.0074,-0.0148,-0.0086
41.34,0.4633,-0.183,10.0494,0.0197,-0.0435,-0.0146
41.36,0.5284,0.1301,9.8882,0.0515,-0.0141,-0.0166
41.38,0.3297,0.1677,10.0058,0.0536,-0.0356,-0.0443
41.4,0.6634,0.0274,9.5634,0.1543,-0.0139,-0.0482
41.42,0.7086,-0.3007,9.7517,0.2248,0.0776,-0.0176
41.44,0.4892,-0.32,9.5211,0.2847,0.162,-0.0152
41.46,0.6741,0.0923,8.9356,0.2211,0.1623,0.0319
41.48,0.5944,0.2675,9.0868,0.0273,0.0208,0.0719
41.5,0.2653,-0.3258,8.9691,-0.3891,-0.2478,0.1674
41.52,-0.0475,0.183,8.7043,-0.7678,-0.4462,0.2217
41.54,-0.6881,-0.3315,8.8794,-1.0189,-0.3553,0.2333
41.56,-1.18,-0.3856,10.0569,-0.9615,0.002,0.1935
41.58,-0.4962,-0.5404,12.477,-0.5796,0.4265,0.1308
41.6,0.5075,-0.7079,12.8543,0.0801,0.621,-0.0123
41.62,1.7885,-0.6349,11.639,0.6964,0.403,-0.0995
41.64,2.1608,-0.5031,10.0786,1.0106,-0.0214,-0.2219
41.66,1.7055,-0.7152,8.9952,1.0128,-0.3634,-0.2624
41.68,0.7396,-0.4154,8.8644,0.7369,-0.4382,-0.1996
41.7,0.7242,-0.2695,8.7797,0.3436,-0.2339,-0.1465
41.72,0.6036,0.0755,9.1072,-0.0657,0.0396,-0.0692
41.74,0.548,-0.1367,9.4503,-0.2033,0.146,-0.0081
41.76,0.2044,-0.291,9.4973,-0.2433,0.1509,0.0132
41.78,0.1265,-0.1881,9.5971,-0.2212,0.0485,0.0326
41.8,0.4268,-0.2446,9.7964,-0.1248,-0.0096,0.0215
41.82,0.2308,-0.1149,9.8302,-0.0197,-0.021,0.015
41.84,0.4206,-0.2273,9.8113,-0.0126,-0.0094,0.0057
41.86,0.2777,-0.5846,9.9015,-0.0427,-0.0437,0.0109
41.88,0.6408,-0.2225,10.0096,0.0214,-0.0288,0.02
41.9,0.498,-0.1845,9.9361,0.0753,-0.0577,0.0295
41.92,0.5967,-0.2891,9.9718,0.1664,0.0222,0.0256
41.94,0.5117,-0.2028,9.5112,0.2132,0.1043,0.0275
41.96,0.4145,-0.5433,9.3032,0.268,0.1859,0.001
41.98,0.3926,-0.5494,9.2717,0.2131,0.0856,-0.0329
42.0,0.1676,-0.5348,9.2785,-0.0704,-0.0628,-0.0958
42.02,0.0775,-0.5541,8.7901,-0.4248,-0.2618,-0.1512
42.04,-0.4101,-0.4386,8.7087,-0.7535,-0.4079,-0.2199
42.06,-0.8034,-0.0916,9.2538,-0.9327,-0.2508,-0.2346
42.08,-0.842,-0.2486,10.7409,-0.8268,0.1478,-0.1516
42.1,-0.5203,0.0209,12.5528,-0.3365,0.4643,-0.0695
42.12,1.0301,-0.1953,13.1607,0.1941,0.5452,0.049
42.14,1.7077,-0.0382,11.3186,0.7078,0.2728,0.1324
42.16,1.5429,-0.331,9.5305,0.9576,-0.1552,0.2301
42.18,1.1404,-0.6208,8.8645,0.8272,-0.372,0.2494
42.2,0.197,-0.672,9.0437,0.5727,-0.3321,0.1794
42.22,0.4333,-0.8127,8.9876,0.169,-0.1144,0.1111
42.24,0.5987,-0.4158,9.3316,-0.1077,0.1017,0.0771
42.26,0.2155,-0.4618,9.2401,-0.2438,0.1477,0.0039
42.28,0.3184,-0.7887,9.3013,-0.2368,0.1113,-0.0402
42.3,0.3453,-0.3554,9.8423,-0.1674,0.0458,-0.0444
42.32,0.2975,-0.4325,9.9259,-0.0842,0.0037,-0.0134
42.34,0.3686,-0.6318,9.8837,-0.0156,-0.0267,-0.0304
42.36,0.6123,-0.322,9.7034,0.003,0.0096,-0.0204
42.38,0.2453,-0.5347,9.9996,0.0215,-0.0074,-0.0072
42.4,0.4993,-0.1762,9.6919,-0.0012,-0.0171,-0.0148
42.42,0.3112,-0.3745,9.752,0.0342,-0.0054,-0.0132
42.44,0.3212,-0.6142,9.8841,0.0019,0.0159,0.0
42.46,0.4117,-0.5702,9.9653,-0.0194,-0.0181,-0.0089
42.48,0.7085,-0.4657,9.794,0.0761,-0.0219,-0.0022
42.5,0.5913,-0.6296,9.812,0.1245,-0.0069,-0.0428
42.52,0.3452,-0.6555,9.735,0.2447,0.0505,-0.0264
42.54,0.3364,-0.3188,9.3752,0.2622,0.1837,-0.0042
42.56,0.4535,-0.4319,9.6004,0.2426,0.1454,0.0284
42.58,0.4487,-0.4513,9.2173,-0.0289,-0.0454,0.0785
42.6,0.2479,-0.4218,8.8124,-0.385,-0.33,0.1535
42.62,-0.401,-0.37,8.523,-0.7747,-0.4566,0.227
42.64,-0.7516,-0.4755,9.2452,-0.9653,-0.2966,0.2237
42.66,-0.9741,-0.595,10.6625,-0.8938,0.0866,0.1823
42.68,-0.6475,-0.6666,12.5899,-0.3938,0.5009,0.1083
42.7,0.3483,-0.3506,12.5849,0.1335,0.5943,-0.0334
42.72,1.7157,-1.0555,11.6263,0.6999,0.3251,-0.1707
42.74,1.8684,-0.5209,9.794,1.0555,-0.1084,-0.2474
42.76,1.2351,-0.2155,9.0207,0.9307,-0.4283,-0.2362
42.78,0.7807,-0.2202,8.7823,0.649,-0.3751,-0.198
42.8,0.4331,-0.3954,8.7701,0.2171,-0.1381,-0.1345
42.82,0.5418,-0.2314,9.2341,-0.0723,0.0884,-0.0895
42.84,0.3819,-0.1759,9.1536,-0.268,0.1486,-0.0157
42.86,0.2629,-0.2391,9.6335,-0.2434,0.1222,-0.0088
42.88,0.2866,-0.1848,9.7659,-0.1338,0.0264,0.0388
42.9,0.1692,-0.1493,9.825,-0.0794,0.0107,0.0321
42.92,0.3768,-0.5304,10.0464,-0.0149,0.0048,0.0175
42.94,0.6783,-0.1273,9.7954,0.0452,-0.0016,0.0107
42.96,0.3658,-0.2846,9.6348,-0.0083,0.0117,0.0123
42.98,0.5261,-0.136,9.771,0.0014,-0.0261,0.0019
43.0,0.7179,-0.145,9.886,0.0122,-0.0163,0.0339
43.02,0.6519,-0.0639,9.9287,0.0427,-0.0634,0.0097
43.04,0.6372,-0.2435,9.8695,0.1443,0.0248,0.0417
43.06,0.7083,-0.1983,9.3296,0.2468,0.0911,0.0431
43.08,0.6504,-0.208,9.5134,0.2715,0.1514,0.0231
43.1,0.7454,-0.2099,9.0264,0.2107,0.1173,-0.0497
43.12,0.2543,-0.0267,9.0093,-0.0631,-0.0482,-0.1129
43.14,0.2116,-0.4049,8.9189,-0.4226,-0.2712,-0.1468
43.16,-0.0479,-0.2771,8.7468,-0.7791,-0.3893,-0.2272
43.18,-0.4959,0.0103,9.2592,-0.9128,-0.2784,-0.2134
43.2,-0.9186,0.0696,10.402,-0.7763,0.1659,-0.1771
43.22,-0.1029,0.2114,12.6691,-0.3871,0.4588,-0.0697
43.24,1.0526,0.0551,12.553,0.224,0.5339,0.0328
43.26,1.6689,-0.0181,10.9755,0.7084,0.2468,0.157
43.28,1.9139,0.0154,9.5496,0.924,-0.172,0.2211
43.3,1.4655,-0.0782,8.6715,0.8694,-0.3432,0.2368
43.32,0.6064,-0.1678,8.6864,0.5704,-0.3614,0.1607
43.34,0.3223,-0.3823,9.0536,0.2034,-0.1206,0.1042
43.36,0.4463,-0.4412,9.2172,-0.0954,0.0912,0.033
43.38,0.4772,-0.3826,9.2911,-0.2539,0.1641,0.007
43.4,0.6217,-0.2244,9.5367,-0.2415,0.1121,-0.016
43.42,-0.0254,-0.1349,9.7542,-0.1291,0.0375,-0.0418
43.44,0.1608,-0.0522,9.8642,-0.0925,-0.0215,-0.0275
43.46,0.5624,-0.2226,10.2467,0.0188,-0.0105,-0.0197
43.48,0.5723,-0.3748,9.8646,0.012,-0.0196,-0.0056
43.5,0.6348,-0.0581,9.965,0.0227,-0.0063,-0.0204
43.52,0.666,-0.2124,9.699,0.022,0.0041,-0.0192
43.54,0.7481,-0.1367,9.6169,0.0434,-0.0004,0.0352
43.56,0.5461,-0.0016,9.8004,0.0045,0.0076,0.018
43.58,0.2474,0.0415,9.66,0.0355,0.0108,0.0048
43.6,0.5505,-0.2964,9.572,-0.0025,0.0247,-0.0068
43.62,0.5592,-0.253,9.7728,0.0248,0.0137,-0.0101
43.64,0.6188,-0.4237,10.0123,0.0005,-0.0288,0.0087
43.66,0.3563,-0.3487,9.7574,0.0234,-0.0016,-0.04
43.68,0.5007,-0.1441,9.6861,-0.0025,0.0109,-0.0383
43.7,0.3336,-0.0835,9.9711,0.0156,-0.0029,-0.0234
43.72,0.7161,-0.2608,9.9397,0.0145,0.0098,-0.0074
43.74,0.3342,-0.0041,9.8819,0.0181,-0.0032,0.0197
43.76,0.4179,-0.3951,9.7204,0.0034,0.0155,-0.0057
43.78,0.3896,-0.292,9.8505,-0.0069,0.0096,-0.0074
43.8,0.3625,-0.3102,9.8403,0.0262,0.023,-0.0063
43.82,0.4031,0.017,9.5884,0.0263,0.0024,-0.019
43.84,0.5696,-0.2954,9.7007,0.0284,0.0083,0.006
43.86,0.48,-0.3911,9.8015,-0.0037,-0.0189,0.0221
43.88,0.3648,-0.2289,9.8781,-0.0244,0.0131,-0.0134
43.9,0.5553,-0.3176,9.6688,-0.0105,-0.0025,-0.0014
43.92,0.2641,-0.4275,9.8971,0.0249,-0.0026,0.0123
43.94,0.1781,-0.2949,9.6294,-0.0078,0.0105,-0.0037
43.96,0.2758,-0.2593,9.7919,-0.0099,0.0061,-0.0105
43.98,0.4087,-0.4175,9.8445,0.014,-0.0061,-0.002
44.0,0.2445,-0.2277,9.7721,0.0033,-0.0138,0.0078
44.02,0.3129,-0.2763,9.7367,0.0146,-0.0205,0.0003
44.04,0.3087,-0.1912,9.7527,0.0191,0.0209,-0.0164
44.06,0.3346,-0.292,9.7022,0.0036,-0.0126,0.0069
44.08,0.3293,-0.2608,9.8764,-0.0161,0.0122,-0.0055
44.1,0.3603,-0.3628,9.7401,0.0128,-0.0053,0.0032
44.12,0.247,-0.2209,9.7304,-0.0045,0.0109,-0.0028
44.14,0.2239,-0.4348,9.6853,0.0229,-0.0062,-0.0042
44.16,0.2959,-0.2278,9.7547,0.0096,-0.0229,0.0177
44.18,0.3482,-0.1367,9.7801,-0.0024,0.0044,-0.0006
44.2,0.189,-0.2535,9.7879,-0.0111,-0.0049,0.0046
44.22,0.3453,-0.2456,9.7825,0.0159,0.0018,0.0013
44.24,0.3772,-0.2584,9.7487,0.0065,0.0075,-0.0031
44.26,0.2306,-0.3003,9.7765,-0.0029,-0.007,0.0007
44.28,0.2965,-0.3204,9.6892,-0.0096,0.0036,0.0005
44.3,0.2706,-0.2212,9.7709,-0.0055,0.002,-0.0009
44.32,0.224,-0.272,9.8447,0.0091,0.0007,0.005
44.34,0.2961,-0.212,9.7574,-0.0066,-0.0061,0.003
44.36,0.348,-0.208,9.8165,0.006,-0.0046,0.0009
44.38,0.2649,-0.1822,9.7668,0.0058,0.0026,0.0004
44.4,0.2581,-0.263,9.817,-0.0042,-0.0026,0.0016
44.42,0.2901,-0.2792,9.7471,0.0005,-0.0052,0.0025
44.44,0.2742,-0.2882,9.8306,-0.0007,-0.0014,-0.0007
44.46,0.256,-0.1983,9.6366,0.0012,0.0003,0.0009
44.48,0.2244,-0.266,9.7807,0.0014,-0.004,-0.0008
44.5,0.1931,-0.1882,9.6932,0.0008,-0.0001,0.0003
44.52,0.2386,-0.2528,9.7826,0.0003,-0.0001,0.0001
44.54,0.334,-0.2711,9.8258,0.0,-0.0,0.0
44.56,0.2272,-0.3095,9.7866,-0.0,0.0,-0.0
44.58,0.2068,-0.2706,9.7154,0.0,0.0,0.0
44.6,0.2365,-0.2683,9.731,0.0,0.0,0.0
44.62,0.2608,-0.241,9.7392,0.0,-0.0,-0.0
44.64,0.2921,-0.254,9.842,0.0,0.0,0.0
44.66,0.2791,-0.188,9.7187,-0.0,0.0,-0.0
44.68,0.1761,-0.2258,9.7934,0.0,0.0,-0.0
44.7,0.2643,-0.257,9.8361,0.0,-0.0,-0.0
44.72,0.2583,-0.2003,9.7711,0.0,-0.0,0.0
44.74,0.3203,-0.2352,9.733,0.0,-0.0,-0.0
44.76,0.2513,-0.2073,9.8012,0.0,0.0,-0.0
44.78,0.2518,-0.2528,9.7572,0.0,-0.0,0.0
44.8,0.2592,-0.1986,9.7906,-0.0,-0.0,-0.0
44.82,0.2927,-0.2031,9.752,0.0,0.0,0.0
44.84,0.3419,-0.2153,9.7745,-0.0,0.0,-0.0
44.86,0.2615,-0.2654,9.7281,-0.0,0.0,0.0
44.88,0.2264,-0.2184,9.6486,0.0,-0.0,0.0
44.9,0.2631,-0.2135,9.7688,-0.0,0.0,0.0
44.92,0.2359,-0.2557,9.7842,-0.0,-0.0,0.0
44.94,0.3162,-0.2381,9.7074,0.0,0.0,0.0
44.96,0.2025,-0.2413,9.8557,-0.0,-0.0,-0.0
44.98,0.2946,-0.2332,9.7881,0.0,0.0,-0.0
