time_s,acc_x,acc_y,acc_z,gyro_x,gyro_y,gyro_z
0.0,0.3564,-0.813,9.7299,-0.008,-0.006,-0.004
0.02,0.6449,-0.7721,9.8827,0.0178,0.0134,0.0089
0.04,0.4624,-0.8712,9.679,-0.0058,-0.0044,-0.0029
0.06,0.6069,-0.6545,9.9699,0.0257,0.0193,0.0128
0.08,0.6499,-0.7653,9.8452,0.0091,0.0068,0.0045
0.1,0.5335,-0.7335,9.8383,0.0125,0.0094,0.0063
0.12,0.3874,-0.8389,9.7244,-0.0046,-0.0035,-0.0023
0.14,0.4684,-0.8019,9.7663,-0.0006,-0.0005,-0.0003
0.16,0.284,-0.8245,9.5668,-0.0165,-0.0123,-0.0082
0.18,0.5221,-0.7272,9.8792,0.0219,0.0165,0.011
0.2,0.5275,-0.8027,9.6983,-0.0024,-0.0018,-0.0012
0.22,0.4359,-0.8638,9.6072,-0.0144,-0.0108,-0.0072
0.24,0.7005,-0.7333,9.8624,0.0294,0.022,0.0147
0.26,0.4848,-0.9205,9.7037,-0.0103,-0.0077,-0.0051
0.28,0.5935,-0.6648,9.9619,0.0281,0.021,0.014
0.3,0.6892,-0.8637,9.9336,0.0235,0.0176,0.0117
0.32,0.5741,-0.7289,9.7963,0.0055,0.0041,0.0027
0.34,0.3096,-0.852,9.5943,-0.0242,-0.0182,-0.0121
0.36,0.5379,-0.8806,9.9058,0.0141,0.0105,0.007
0.38,0.577,-0.7843,9.7899,0.0059,0.0044,0.0029
0.4,0.5143,-0.6763,9.8125,0.0052,0.0039,0.0026
0.42,0.4222,-0.8577,9.6172,-0.0164,-0.0123,-0.0082
0.44,0.4732,-0.6865,9.6933,-0.0009,-0.0007,-0.0004
0.46,0.543,-0.6422,9.7019,-0.0024,-0.0018,-0.0012
0.48,0.3702,-0.9572,9.5545,-0.0239,-0.018,-0.012
0.5,0.6162,-0.7235,9.8443,0.023,0.0172,0.0115
0.52,0.2848,-0.8933,9.5981,-0.0151,-0.0113,-0.0076
0.54,0.4877,-0.7651,9.791,0.0068,0.0051,0.0034
0.56,0.4558,-0.8022,9.5893,-0.0106,-0.0079,-0.0053
0.58,0.5861,-0.7201,9.8832,0.0147,0.011,0.0073
0.6,0.3694,-0.8191,9.5531,-0.0107,-0.008,-0.0053
0.62,0.3649,-0.9591,9.6693,-0.0188,-0.0141,-0.0094
0.64,0.3573,-0.9664,9.6262,-0.0316,-0.0237,-0.0158
0.66,0.5349,-0.8404,9.8847,0.0114,0.0086,0.0057
0.68,0.5872,-0.792,9.9344,0.0138,0.0103,0.0069
0.7,0.5748,-0.7445,9.7858,0.01,0.0075,0.005
0.72,0.5245,-0.7676,9.8265,0.01,0.0075,0.005
0.74,0.5836,-0.7452,9.8039,0.0117,0.0088,0.0059
0.76,0.5489,-0.8276,9.6976,-0.004,-0.003,-0.002
0.78,0.6193,-0.8102,9.8515,0.017,0.0127,0.0085
0.8,0.5287,-0.6832,9.9137,0.019,0.0143,0.0095
0.82,0.6726,-0.7514,9.9163,0.0289,0.0217,0.0144
0.84,0.4194,-0.8747,9.6415,-0.0158,-0.0119,-0.0079
0.86,0.6631,-0.7501,9.9759,0.0289,0.0217,0.0145
0.88,0.597,-0.6884,9.7292,0.0058,0.0044,0.0029
0.9,0.3477,-0.8179,9.6854,-0.0069,-0.0052,-0.0034
0.92,0.3848,-0.8575,9.6972,-0.0143,-0.0107,-0.0071
0.94,0.5277,-0.8331,9.7601,-0.0035,-0.0026,-0.0017
0.96,0.464,-0.8545,9.7395,-0.0055,-0.0041,-0.0027
0.98,0.533,-0.7603,9.8227,0.0089,0.0067,0.0045
1.0,0.5954,-0.7647,9.8539,0.0128,0.0096,0.0064
1.02,0.4551,-0.7124,9.7212,0.0055,0.0041,0.0027
1.04,0.4492,-0.8873,9.7235,-0.0029,-0.0022,-0.0014
1.06,0.4681,-0.7673,9.5704,-0.0114,-0.0085,-0.0057
1.08,0.5532,-0.7444,9.6521,-0.0027,-0.0021,-0.0014
1.1,0.6512,-0.7479,9.9234,0.0257,0.0193,0.0128
1.12,0.6436,-0.7175,9.9285,0.0187,0.014,0.0093
1.14,0.403,-0.8485,9.6301,-0.0173,-0.013,-0.0087
1.16,0.4942,-0.8231,9.7298,0.0026,0.0019,0.0013
1.18,0.4664,-0.7234,9.8029,0.0148,0.0111,0.0074
1.2,0.4442,-0.8371,9.6748,-0.0025,-0.0018,-0.0012
1.22,0.4084,-0.8498,9.6622,-0.0109,-0.0081,-0.0054
1.24,0.3224,-0.9392,9.5501,-0.0284,-0.0213,-0.0142
1.26,0.3964,-0.8343,9.7677,0.0011,0.0008,0.0005
1.28,0.4286,-0.7682,9.7675,-0.0014,-0.001,-0.0007
1.3,0.5359,-0.8203,9.7867,0.0043,0.0033,0.0022
1.32,0.5617,-0.8236,9.8068,0.0011,0.0008,0.0006
1.34,0.3573,-0.8492,9.6422,-0.0148,-0.0111,-0.0074
1.36,0.5733,-0.7575,9.876,0.012,0.009,0.006
1.38,0.4372,-0.7861,9.7561,-0.0059,-0.0044,-0.0029
1.4,0.6265,-0.8697,9.8288,0.0189,0.0142,0.0094
1.42,0.3668,-0.9673,9.3972,-0.0385,-0.0289,-0.0192
1.44,0.5877,-0.8746,9.8789,0.0172,0.0129,0.0086
1.46,0.6944,-0.7347,9.9435,0.0242,0.0182,0.0121
1.48,0.4833,-0.7977,9.7114,-0.0063,-0.0047,-0.0032
1.5,0.5663,-0.7924,9.7503,0.0079,0.0059,0.0039
1.52,0.5189,-0.8637,9.7933,0.0104,0.0078,0.0052
1.54,0.4231,-0.9216,9.578,-0.0196,-0.0147,-0.0098
1.56,0.4631,-0.7386,9.7074,0.0036,0.0027,0.0018
1.58,0.5593,-0.8396,9.8902,0.0059,0.0044,0.0029
1.6,0.4621,-0.83,9.7841,-0.0036,-0.0027,-0.0018
1.62,0.6831,-0.682,9.9014,0.0221,0.0165,0.011
1.64,0.6427,-0.8086,9.7588,0.0127,0.0095,0.0063
1.66,0.4129,-0.8306,9.6265,-0.0225,-0.0169,-0.0112
1.68,0.6323,-0.7346,9.7892,0.014,0.0105,0.007
1.7,0.6495,-0.6314,9.8451,0.023,0.0173,0.0115
1.72,0.6246,-0.8013,9.733,-0.0001,-0.0001,-0.0
1.74,0.4492,-0.7762,9.6514,-0.0094,-0.0071,-0.0047
1.76,0.591,-0.6434,9.9285,0.0188,0.0141,0.0094
1.78,0.3515,-0.8103,9.4984,-0.0273,-0.0204,-0.0136
1.8,0.6415,-0.7194,9.8101,0.0159,0.0119,0.0079
1.82,0.5365,-0.8178,9.6709,-0.0053,-0.004,-0.0027
1.84,0.4782,-0.7276,9.7745,0.0042,0.0032,0.0021
1.86,0.5146,-0.7358,9.7682,0.0094,0.0071,0.0047
1.88,0.5822,-0.7849,9.8631,0.0094,0.0071,0.0047
1.9,0.3539,-0.8271,9.6016,-0.0222,-0.0166,-0.0111
1.92,0.3413,-0.8911,9.5143,-0.0306,-0.023,-0.0153
1.94,0.5852,-0.766,9.7786,0.0026,0.002,0.0013
1.96,0.4542,-0.7819,9.6654,-0.0003,-0.0002,-0.0002
1.98,0.587,-0.7397,9.8702,0.0162,0.0122,0.0081
2.0,0.371,-0.7734,9.7796,-0.0096,-0.0075,-0.0048
2.02,0.662,-0.7099,9.8944,0.0217,0.016,0.0105
2.04,0.6445,-0.6826,9.8972,0.0131,0.0114,0.0069
2.06,0.4686,-0.7905,9.9105,0.0202,0.015,0.0079
2.08,0.4979,-0.8156,9.5543,-0.0251,-0.0188,-0.0133
2.1,0.4834,-0.8473,9.764,0.0036,0.0049,0.0042
2.12,0.4137,-0.8016,9.638,-0.0157,-0.011,-0.0076
2.14,0.5632,-0.6901,9.8781,0.0204,0.0177,0.0133
2.16,0.5958,-0.8262,9.7418,0.0116,0.0062,0.0034
2.18,0.4057,-0.8373,9.7566,-0.0014,0.0038,0.0016
2.2,0.293,-0.8054,9.7738,-0.0017,0.0023,-0.0101
2.22,0.4328,-0.7096,9.8118,0.0112,0.0126,0.0042
2.24,0.6804,-0.7269,9.9027,0.0214,0.0241,0.0207
2.26,0.6134,-0.7082,9.8887,0.0208,0.0199,0.0114
2.28,0.5638,-0.8701,9.704,0.0016,0.0141,0.0006
2.3,0.3653,-0.8668,9.6478,-0.0248,-0.0064,-0.0095
2.32,0.4994,-0.7153,9.7105,0.0088,0.011,-0.0018
2.34,0.7003,-0.7302,9.9969,0.0408,0.0192,0.0192
2.36,0.4485,-0.8688,9.7671,0.0125,0.0044,-0.0086
2.38,0.6238,-0.7408,9.8635,0.0237,0.0176,0.0007
2.4,0.5635,-0.7317,9.8028,0.0173,0.004,-0.0095
2.42,0.5957,-0.8005,9.6196,-0.0096,0.0117,-0.0095
2.44,0.4887,-0.6156,9.6049,0.0131,0.002,-0.0002
2.46,0.5868,-0.754,9.7308,0.007,0.003,-0.008
2.48,0.5083,-0.7879,9.9344,0.0212,0.0114,0.0094
2.5,0.4112,-0.8867,9.6324,-0.0178,0.0051,-0.0211
2.52,0.632,-0.6539,10.0548,0.0375,0.0174,0.0145
2.54,0.4355,-0.9435,9.6669,0.0029,-0.0131,-0.0038
2.56,0.6576,-0.9311,9.8105,0.021,0.0165,0.0216
2.58,0.5093,-0.7414,9.7282,0.0021,0.0158,-0.0114
2.6,0.2042,-0.8383,9.4846,-0.0213,-0.0289,-0.0309
2.62,0.5134,-0.999,9.4177,-0.0341,0.0025,0.0113
2.64,0.4467,-0.7517,9.5787,-0.0166,0.0007,0.0162
2.66,0.331,-0.8907,9.5227,-0.0335,-0.0343,-0.0145
2.68,0.3823,-0.9152,9.4779,-0.0399,-0.025,-0.0015
2.7,0.4445,-0.7884,9.7336,0.0159,0.023,0.0142
2.72,0.6165,-0.8359,9.6074,0.0205,-0.0208,0.0093
2.74,0.6292,-0.7341,9.7028,0.0592,-0.0043,0.0204
2.76,0.8215,-0.5817,9.777,0.1075,0.065,0.0347
2.78,0.4796,-1.0176,9.4258,0.0845,0.0402,0.0087
2.8,0.5204,-0.792,9.5339,0.1139,0.0501,0.0114
2.82,0.6222,-1.0836,9.2533,0.0367,0.0415,-0.0325
2.84,0.5795,-0.9677,9.2937,0.0351,0.0397,-0.0926
2.86,0.3819,-0.937,9.1647,-0.0956,-0.0962,-0.156
2.88,0.245,-0.9316,9.085,-0.2815,-0.133,-0.2113
2.9,0.0374,-0.6307,9.163,-0.4021,-0.2091,-0.2362
2.92,-0.3616,-0.5958,9.3525,-0.5213,-0.1488,-0.2633
2.94,-0.4842,-0.6561,9.811,-0.4771,-0.0399,-0.2398
2.96,-0.3043,-0.4035,10.574,-0.3905,0.1616,-0.1661
2.98,0.1387,-0.5819,11.3858,-0.1815,0.263,-0.0921
3.0,0.4157,-0.5405,11.5905,0.0978,0.307,0.047
3.02,1.6339,-0.2336,11.4993,0.34,0.2433,0.1698
3.04,1.389,-0.5698,10.2397,0.4964,0.037,0.2241
3.06,1.2615,-0.5051,9.2777,0.5094,-0.1209,0.2578
3.08,1.0386,-0.8997,9.1082,0.5268,-0.2172,0.2657
3.1,0.6707,-0.8979,9.2821,0.3863,-0.2103,0.2435
3.12,0.2847,-0.9006,9.2245,0.1832,-0.1059,0.1583
3.14,0.5325,-1.0616,9.063,0.0514,-0.0569,0.1075
3.16,0.5122,-0.9806,9.3196,-0.0572,0.05,0.0512
3.18,0.3119,-1.008,9.6254,-0.1111,0.1049,0.0398
3.2,0.5564,-1.0153,9.8972,-0.0964,0.1418,-0.0058
3.22,0.2632,-0.927,9.4955,-0.1429,0.0785,-0.0356
3.24,0.5809,-1.0191,9.6789,-0.0632,0.0534,-0.0261
3.26,0.4567,-0.9516,9.8164,0.0023,0.0211,-0.0264
3.28,0.2856,-0.6829,9.9597,0.0144,-0.0214,-0.0192
3.3,0.3105,-1.005,9.8008,-0.0079,-0.0278,-0.0113
3.32,0.3381,-0.9271,9.4677,0.0106,0.0251,-0.0033
3.34,0.4663,-0.844,9.4874,-0.0016,0.0336,-0.0148
3.36,0.3971,-0.9328,9.4438,-0.0349,-0.0063,0.0004
3.38,0.0492,-0.9018,9.3588,-0.0291,-0.0271,-0.0247
3.4,0.5624,-0.8002,9.9202,0.002,-0.0064,-0.0031
3.42,0.2316,-1.0655,9.4501,-0.031,-0.0204,-0.0055
3.44,0.183,-0.6635,9.4401,0.0566,-0.0403,-0.0261
3.46,0.3637,-0.8344,9.5718,0.0824,-0.0004,-0.0265
3.48,0.3192,-0.9817,9.445,0.1083,0.0375,-0.0354
3.5,0.8527,-0.833,9.5027,0.1376,0.0738,0.0442
3.52,0.4685,-0.8636,9.3442,0.1209,0.0366,-0.0116
3.54,0.0094,-0.959,9.3221,0.1015,0.0536,0.066
3.56,0.2991,-0.6008,9.115,-0.0499,-0.0422,0.1019
3.58,0.287,-0.9879,9.3244,-0.1706,-0.1221,0.1491
3.6,0.1197,-0.7694,8.9251,-0.3114,-0.1777,0.1898
3.62,-0.3002,-1.178,9.1698,-0.3937,-0.1896,0.2085
3.64,-0.2941,-1.1714,9.4513,-0.4335,-0.0801,0.242
3.66,-0.4219,-1.1608,9.799,-0.3928,0.0523,0.177
3.68,-0.28,-1.2652,10.4938,-0.2718,0.1698,0.088
3.7,0.1527,-1.1492,10.9003,-0.0257,0.26,0.021
3.72,0.5565,-1.5282,11.0076,0.1301,0.2286,-0.0979
3.74,1.1348,-1.0695,10.4668,0.3709,0.1306,-0.1665
3.76,1.1282,-1.1405,9.5557,0.4214,-0.0546,-0.2218
3.78,1.0025,-0.8017,9.2847,0.4474,-0.1918,-0.1946
3.8,0.7825,-0.8393,9.2694,0.4126,-0.1992,-0.2118
3.82,0.7091,-0.8094,9.1838,0.2256,-0.1344,-0.1844
3.84,0.4623,-0.8132,9.2191,0.0958,-0.0605,-0.1403
3.86,0.1974,-0.7089,9.3355,-0.0012,0.02,-0.08
3.88,0.3746,-0.7808,9.4009,-0.091,0.0689,-0.0153
3.9,0.5503,-0.7426,9.7362,-0.0904,0.1389,0.0196
3.92,0.5698,-0.6788,9.9224,-0.0586,0.0719,0.0577
3.94,0.5959,-0.7986,9.8271,-0.081,0.0263,0.0459
3.96,0.235,-0.8671,9.6657,-0.0571,-0.0139,-0.0073
3.98,0.6789,-0.8329,10.1477,-0.02,-0.0017,0.0329
4.0,0.7003,-0.6524,9.7289,-0.0374,0.0264,-0.0384
4.02,0.8213,-0.939,9.7416,0.0251,-0.0031,0.0068
4.04,0.4683,-0.4312,9.9723,0.0122,0.007,-0.0137
4.06,0.3098,-0.6833,10.0107,0.0285,-0.0087,-0.033
4.08,0.6824,-0.746,9.8604,-0.0172,0.0046,0.0205
4.1,0.3922,-0.7102,9.8888,-0.0115,0.0,-0.0005
4.12,0.6896,-0.8753,9.8599,0.0105,0.0301,0.0109
4.14,0.6692,-0.8004,10.1313,0.0632,0.0242,0.01
4.16,0.6679,-1.0573,9.8483,0.0225,0.0046,-0.0129
4.18,0.8835,-0.8031,10.0007,0.049,0.0316,0.0052
4.2,0.557,-0.4986,9.702,-0.0109,-0.0259,0.0471
4.22,0.6696,-0.7173,9.8739,0.0564,-0.017,0.0264
4.24,0.6074,-0.4914,10.1679,0.0415,0.0247,0.0374
4.26,0.6296,-0.7031,10.0063,0.0212,0.0215,0.0352
4.28,0.9318,-0.7604,10.283,0.0648,0.0114,0.0229
4.3,0.649,-0.8528,9.8522,0.0802,0.0112,0.0306
4.32,0.5807,-0.9649,9.5829,0.1363,0.0921,0.0209
4.34,0.6639,-0.6784,9.5717,0.1289,0.0744,0.0098
4.36,0.8138,-0.7453,9.5705,0.111,0.1153,-0.0773
4.38,0.5903,-1.0159,9.6219,0.0042,0.0504,-0.0955
4.4,0.5774,-0.9505,9.4881,-0.1301,-0.0822,-0.1612
4.42,0.5078,-0.8395,9.4669,-0.2389,-0.1407,-0.2092
4.44,-0.0748,-1.0208,9.2023,-0.4117,-0.1953,-0.2098
4.46,-0.3607,-0.7029,9.3449,-0.4519,-0.1154,-0.2525
4.48,-0.2365,-0.5363,9.876,-0.4374,-0.0381,-0.1985
4.5,-0.4357,-0.6481,10.5743,-0.3297,0.1618,-0.1448
4.52,0.0949,-0.6049,11.1476,-0.1939,0.277,-0.0791
4.54,0.6847,-0.3225,11.8189,0.0325,0.2994,0.028
4.56,0.9364,-0.5635,10.91,0.2918,0.2128,0.1226
4.58,1.5699,-0.4928,10.3756,0.4532,0.0839,0.2091
4.6,0.8607,-0.7583,9.3859,0.5049,-0.0954,0.2631
4.62,0.9389,-0.5757,9.4821,0.4368,-0.2038,0.2204
4.64,0.762,-0.4858,9.4028,0.3271,-0.1808,0.2418
4.66,0.6289,-0.8336,9.2591,0.2213,-0.1233,0.1854
4.68,0.3727,-1.1732,9.1893,0.0417,-0.0362,0.1112
4.7,0.1596,-1.0744,9.4016,-0.0874,0.0166,0.0529
4.72,0.1718,-0.7176,9.2334,-0.1381,0.0875,-0.0204
4.74,0.2962,-0.5881,9.4999,-0.1401,0.1139,-0.0202
4.76,0.3832,-0.7433,9.2779,-0.0942,0.0305,-0.0401
4.78,0.4539,-0.8581,9.5643,-0.0426,0.0349,-0.0035
4.8,0.3754,-0.7504,9.6913,-0.0204,0.0226,0.0205
4.82,0.1611,-0.9312,9.7598,0.0186,-0.0502,-0.032
4.84,0.4985,-0.9445,10.0044,0.0204,0.0217,0.0377
4.86,0.4431,-0.9373,9.6137,0.0095,-0.0011,0.0042
4.88,0.571,-0.9526,9.6367,0.0323,0.0086,0.002
4.9,-0.0189,-1.0266,9.3086,-0.0271,-0.0369,-0.0079
4.92,-0.0871,-1.0353,9.2412,-0.0164,-0.0474,-0.0336
4.94,0.1715,-1.1308,9.4725,0.0243,-0.017,0.0212
4.96,0.2704,-1.0531,9.4944,-0.0191,0.0063,0.0369
4.98,0.2946,-1.0257,9.4612,0.0095,-0.0234,-0.0362
5.0,0.399,-1.0403,9.7714,0.0263,-0.0338,0.001
5.02,0.2858,-0.9675,9.4892,0.0692,-0.0076,-0.062
5.04,0.581,-1.198,9.5061,0.0953,0.0543,-0.0486
5.06,0.2625,-0.895,9.3151,0.0952,0.0617,-0.0163
5.08,0.445,-0.7626,9.4078,0.1476,0.1107,0.0254
5.1,0.1539,-0.8434,9.1854,0.1192,0.0441,0.0526
5.12,0.356,-0.8253,9.0685,0.011,0.0139,0.0403
5.14,0.0108,-0.8599,9.2272,-0.1545,-0.0957,0.1248
5.16,0.1817,-0.6406,9.3779,-0.2581,-0.1563,0.2211
5.18,0.0551,-0.8915,9.3107,-0.3961,-0.1563,0.2639
5.2,-0.2043,-0.9767,9.1425,-0.494,-0.1198,0.2456
5.22,-0.4779,-1.1308,9.7728,-0.4733,-0.0347,0.2665
5.24,-0.1534,-1.2235,10.7447,-0.3377,0.1425,0.1548
5.26,-0.0298,-1.0583,11.1706,-0.1136,0.2769,0.0935
5.28,0.4757,-1.232,11.3167,0.0658,0.2927,-0.0332
5.3,0.9831,-0.9791,10.4344,0.2765,0.2143,-0.1699
5.32,1.3805,-0.9733,9.8111,0.4551,0.0056,-0.1987
5.34,1.1512,-0.9928,9.4139,0.5079,-0.1505,-0.2333
5.36,0.8678,-0.7847,9.3213,0.4618,-0.2098,-0.2499
5.38,0.6548,-0.7738,9.3665,0.3519,-0.1919,-0.1981
5.4,0.4339,-0.5343,9.4752,0.1909,-0.1131,-0.2046
5.42,0.3429,-0.8428,9.3243,0.015,-0.0302,-0.1229
5.44,0.5738,-0.597,9.5945,-0.0613,0.0567,-0.0586
5.46,0.4957,-0.6099,9.3827,-0.1363,0.0431,-0.0097
5.48,0.3929,-0.8451,9.7271,-0.1386,0.0866,0.0312
5.5,0.4235,-1.1605,9.6395,-0.1029,0.0189,0.0718
5.52,0.4784,-0.3723,9.8377,-0.0298,-0.0175,0.0396
5.54,0.2075,-0.8702,9.5985,-0.0724,-0.061,-0.008
5.56,0.8333,-0.4973,10.2258,0.0078,0.0338,0.0141
5.58,0.6033,-0.8091,9.979,0.0269,-0.0353,0.0067
5.6,0.4994,-0.9379,10.1721,0.05,-0.0174,0.0221
5.62,0.8951,-0.4807,10.2782,0.0255,0.0181,0.0295
5.64,0.757,-0.6145,10.1089,0.0391,0.0032,0.01
5.66,0.319,-0.7434,9.8654,-0.0285,-0.0181,0.0159
5.68,0.8841,-0.6271,9.9971,0.0126,-0.0319,0.0536
5.7,0.8783,-0.8284,10.0524,0.0134,0.002,0.0167
5.72,0.8688,-0.7986,10.04,0.0668,0.0038,0.0299
5.74,0.7345,-0.9875,9.738,0.0929,0.0077,0.0113
5.76,0.6602,-0.9753,9.3289,0.055,0.0227,0.0023
5.78,0.4859,-0.6852,9.6637,0.1044,0.0465,-0.018
5.8,0.5388,-0.7753,9.6367,0.1049,0.0737,-0.0209
5.82,0.6073,-0.9396,9.3653,-0.0159,-0.0106,-0.1211
5.84,0.5324,-0.9936,9.6239,-0.1128,-0.0828,-0.1244
5.86,0.5288,-0.7619,9.7351,-0.2503,-0.1283,-0.1835
5.88,-0.018,-0.7396,9.4688,-0.3548,-0.1775,-0.2383
5.9,-0.1077,-0.4486,9.6154,-0.4079,-0.1007,-0.232
5.92,-0.019,-0.5717,10.0519,-0.371,0.0011,-0.1547
5.94,0.2369,-0.4005,10.9493,-0.277,0.1903,-0.1156
5.96,0.77,-0.7942,11.3374,-0.0742,0.2712,0.0094
5.98,0.615,-0.4826,10.8069,0.0986,0.2255,0.0432
6.0,1.3797,-0.5608,10.7949,0.3371,0.1303,0.1067
6.02,1.2199,-0.5881,9.7984,0.4371,-0.0308,0.216
6.04,1.0865,-0.7417,9.3478,0.4257,-0.1524,0.1993
6.06,0.7791,-0.8589,9.3087,0.3847,-0.2049,0.2555
6.08,0.4767,-1.1234,9.4781,0.2828,-0.1675,0.1775
6.1,0.4452,-0.8104,9.4633,0.1485,-0.0457,0.136
6.12,0.379,-0.9735,9.3101,-0.0075,0.0002,0.0777
6.14,0.4754,-1.0224,9.4013,-0.0635,0.0701,0.0469
6.16,0.4451,-1.0749,9.3178,-0.1216,0.0596,-0.0107
6.18,0.2582,-0.9348,9.6157,-0.0932,0.0553,-0.0298
6.2,0.1046,-0.9562,9.4352,-0.1084,-0.0025,-0.0134
6.22,0.4437,-0.8624,9.3986,-0.0404,0.0417,-0.0056
6.24,0.7664,-0.729,10.1458,0.0292,0.0124,-0.0423
6.26,0.4846,-0.8092,9.6049,-0.0033,0.0163,-0.0062
6.28,0.0795,-1.1096,9.5472,-0.0226,0.0016,-0.0456
6.3,0.3313,-1.065,9.6429,0.0081,0.024,-0.0427
6.32,0.2411,-0.6676,9.7003,0.014,0.0162,0.0179
6.34,0.4638,-0.8765,9.805,0.037,0.0244,0.0217
6.36,0.3422,-1.0742,9.6365,-0.0168,-0.035,0.0213
6.38,0.2001,-1.1048,9.3746,0.0119,-0.0053,-0.0104
6.4,0.3389,-0.9673,9.7031,0.0315,-0.0078,-0.0066
6.42,0.4997,-0.8011,9.7264,0.0317,-0.0267,-0.0323
6.44,0.7084,-0.7044,9.6848,0.1082,0.0126,-0.0139
6.46,0.801,-0.8113,9.5824,0.1333,0.0393,-0.0332
6.48,0.7213,-0.9778,9.3678,0.0964,0.0147,-0.0012
6.5,0.4051,-1.07,9.4627,0.082,0.0488,-0.009
6.52,0.2115,-0.7656,9.3361,0.1419,0.0436,0.0271
6.54,0.436,-0.7156,9.4444,0.0127,0.0191,0.1198
6.56,0.2045,-0.8583,9.2373,-0.1004,-0.0648,0.1269
6.58,0.0935,-1.0162,9.2684,-0.2571,-0.1513,0.1909
6.6,0.1691,-0.8097,9.2794,-0.3787,-0.1714,0.2866
6.62,-0.1806,-0.8412,9.5136,-0.4249,-0.1213,0.2778
6.64,-0.4755,-1.0601,9.706,-0.4434,-0.0027,0.2222
6.66,-0.1077,-0.8911,10.6297,-0.3492,0.125,0.1432
6.68,-0.1484,-1.5564,10.6793,-0.1765,0.2436,0.0469
6.7,0.5558,-0.9542,11.3644,0.0779,0.2359,-0.0221
6.72,0.8902,-1.0407,10.5187,0.337,0.1903,-0.152
6.74,1.1953,-0.9505,9.9233,0.4632,0.0522,-0.1899
6.76,1.057,-1.177,9.6188,0.4761,-0.1494,-0.2551
6.78,0.7771,-0.8895,9.2228,0.4296,-0.1755,-0.2634
6.8,0.7389,-0.9052,9.2916,0.3201,-0.1648,-0.1809
6.82,0.703,-0.6114,9.6451,0.2224,-0.1141,-0.1388
6.84,0.7293,-1.0334,9.4791,0.07,0.0092,-0.0924
6.86,0.4802,-0.7192,9.4416,-0.0754,0.044,-0.0222
6.88,0.4832,-0.8285,9.6331,-0.136,0.0798,0.0046
6.9,0.3395,-0.6846,9.6301,-0.14,0.0604,0.0074
6.92,0.46,-0.6357,9.7847,-0.0772,0.0129,0.0078
6.94,0.3687,-0.8177,9.8717,-0.0169,0.0441,0.019
6.96,0.6321,-1.0829,9.9924,-0.0084,0.0008,-0.0154
6.98,0.4301,-1.0198,9.8872,-0.0528,-0.0332,0.0367
7.0,0.5072,-0.819,9.9502,-0.0135,-0.0217,-0.0172
7.02,0.6847,-0.7594,10.266,0.0763,0.0273,0.0359
7.04,0.5978,-0.7107,9.9746,0.0135,0.0037,0.0323
7.06,0.6648,-0.7652,9.9011,0.0392,-0.0265,0.0131
7.08,0.6538,-0.7813,10.0134,0.0447,-0.0067,0.0219
7.1,0.8924,-0.4085,10.0596,0.0908,0.0607,0.0298
7.12,0.8749,-0.6216,9.8994,0.0833,0.0974,-0.0068
7.14,0.7192,-0.8865,9.8647,0.1629,0.0602,-0.0127
7.16,0.5571,-0.7899,9.6419,0.0861,0.0814,-0.0131
7.18,0.4969,-0.9019,9.4303,0.0084,-0.0199,-0.0703
7.2,0.4653,-0.9841,9.5617,-0.1056,-0.0786,-0.1334
7.22,0.3946,-0.7348,9.527,-0.2482,-0.1915,-0.1819
7.24,0.1226,-0.8394,9.4899,-0.3542,-0.2102,-0.2252
7.26,0.3246,-0.5911,9.4945,-0.4666,-0.1622,-0.2498
7.28,-0.4771,-0.8825,9.7421,-0.4582,-0.0818,-0.2626
7.3,0.0218,-0.4079,10.4534,-0.3177,0.0915,-0.1499
7.32,-0.0153,-0.5108,11.11,-0.146,0.2374,-0.1162
7.34,0.5097,-0.6456,10.9251,0.0504,0.2706,0.0391
7.36,1.41,-0.28,10.9513,0.3045,0.1931,0.1021
7.38,1.1379,-0.4476,10.1787,0.4386,0.0527,0.1971
7.4,0.9286,-0.6647,9.6697,0.4756,-0.1149,0.2776
7.42,0.872,-0.8156,9.4713,0.4532,-0.1835,0.2438
7.44,0.8367,-0.9508,9.3749,0.3463,-0.1852,0.1857
7.46,0.3774,-0.777,9.4288,0.2177,-0.1378,0.1476
7.48,0.313,-0.8911,9.4019,0.0328,-0.0231,0.121
7.5,0.4566,-1.1233,9.587,-0.0309,0.0314,0.052
7.52,0.359,-0.9079,9.5756,-0.1175,0.0286,0.0134
7.54,0.5022,-0.9894,9.659,-0.1154,0.0589,0.01
7.56,0.1405,-1.1307,9.3301,-0.1217,0.0147,-0.0189
7.58,0.4467,-0.8538,9.8258,-0.0525,-0.0083,-0.0486
7.6,0.2737,-1.0112,9.7115,-0.0518,-0.0457,-0.0483
7.62,0.3246,-0.9331,9.815,0.0022,0.0216,-0.0156
7.64,0.2858,-0.6419,9.7126,0.0248,-0.012,-0.0319
7.66,0.3316,-0.8678,9.5926,-0.0151,-0.0069,-0.0077
7.68,0.4768,-0.7054,9.7917,0.0281,-0.013,-0.0217
7.7,0.3662,-0.8765,9.6535,-0.017,-0.0057,-0.0172
7.72,0.0246,-0.8104,9.537,-0.014,-0.0205,-0.0197
7.74,0.2584,-0.9858,9.4573,-0.0054,-0.0181,-0.0757
7.76,0.5222,-0.7943,9.6206,0.1164,-0.0296,-0.0369
7.78,0.3184,-0.6744,9.3508,0.1,0.0658,-0.0261
7.8,0.3185,-1.1125,9.284,0.0958,0.0409,-0.0391
7.82,0.3757,-0.8076,9.3776,0.1257,0.0702,-0.0046
7.84,0.268,-0.9644,9.1689,0.0974,0.0492,0.0152
7.86,0.2976,-0.7898,9.2857,-0.0316,-0.0217,0.0914
7.88,0.0357,-0.8588,8.9492,-0.1789,-0.1125,0.1258
7.9,0.4392,-0.9842,9.3991,-0.238,-0.1824,0.166
7.92,-0.4355,-1.0339,9.1752,-0.4048,-0.1872,0.2341
7.94,-0.4002,-0.7666,9.3875,-0.4833,-0.1377,0.2518
7.96,-0.4042,-1.1402,9.874,-0.4556,-0.002,0.193
7.98,-0.0913,-1.22,10.5344,-0.2839,0.1565,0.1204
8.0,-0.1098,-1.3108,10.6999,-0.1383,0.2176,0.0504
8.02,0.5023,-0.9736,11.0885,0.1127,0.2219,-0.0595
8.04,0.9647,-1.0292,10.596,0.3207,0.1552,-0.1236
8.06,0.9517,-0.9572,9.9376,0.4614,0.0051,-0.1597
8.08,1.275,-0.8875,9.4348,0.482,-0.1026,-0.2118
8.1,0.8593,-0.8258,9.4312,0.4639,-0.1724,-0.2038
8.12,0.8571,-0.7183,9.8243,0.3195,-0.1459,-0.1537
8.14,0.7043,-0.635,9.5031,0.1945,-0.0951,-0.1523
8.16,0.2602,-1.1125,9.4668,0.0156,-0.0261,-0.0728
8.18,0.6296,-0.5785,9.7601,-0.0621,0.052,-0.0244
8.2,0.639,-0.638,9.8103,-0.034,0.112,0.0404
8.22,0.4318,-0.7189,9.6453,-0.0868,0.0703,0.0207
8.24,0.5876,-0.4184,9.8973,-0.0539,0.0523,0.0567
8.26,0.6086,-0.6952,9.976,-0.0211,0.0039,0.0344
8.28,0.6074,-0.7345,9.9352,-0.0023,-0.02,0.0316
8.3,0.3692,-0.7873,9.8161,0.0128,-0.0006,-0.0172
8.32,0.4029,-0.7691,9.8462,0.0075,0.0006,-0.0144
8.34,0.8038,-0.7403,10.0026,0.0037,0.0292,0.0048
8.36,0.3306,-0.7817,9.6437,-0.0118,-0.0424,-0.0104
8.38,0.899,-0.5853,10.1291,0.0228,0.0021,0.0034
8.4,0.8343,-0.6478,10.0394,0.0296,0.0313,0.0139
8.42,0.5758,-0.8003,9.8843,0.0187,-0.003,0.0068
8.44,0.6721,-0.8625,9.9415,0.0453,-0.0108,0.0211
8.46,0.6023,-0.7855,9.8831,0.1005,0.0025,0.0375
8.48,0.672,-0.8456,9.6795,0.1215,0.0037,-0.014
8.5,0.7037,-0.8891,9.7374,0.1334,0.0707,0.0296
8.52,0.6383,-0.7496,9.6166,0.0885,0.0646,-0.0336
8.54,0.7756,-0.6575,9.647,0.0895,0.1081,-0.0334
8.56,0.8383,-0.794,9.7499,-0.0083,0.0312,-0.1044
8.58,0.738,-0.8661,9.7752,-0.1215,-0.0745,-0.1245
8.6,0.5071,-0.7039,9.6207,-0.2617,-0.2036,-0.2019
8.62,0.1334,-0.5675,9.7241,-0.3739,-0.2056,-0.2204
8.64,-0.2366,-0.7641,9.5761,-0.5012,-0.1909,-0.2837
8.66,-0.193,-0.5549,9.9615,-0.4538,-0.0041,-0.1871
8.68,0.1456,-0.5046,11.1195,-0.3106,0.1513,-0.0998
8.7,0.2241,-0.718,11.0235,-0.1336,0.2527,-0.0619
8.72,0.8445,-0.6454,11.2034,0.0899,0.236,0.0463
8.74,1.3334,-0.4925,10.7716,0.3034,0.1702,0.1464
8.76,1.1458,-0.565,9.848,0.4343,-0.0221,0.1913
8.78,1.4145,-0.5003,9.7561,0.521,-0.1268,0.2082
8.8,1.1123,-0.6675,9.4322,0.4567,-0.177,0.2124
8.82,0.6467,-0.8165,9.4889,0.3094,-0.1684,0.225
8.84,0.5779,-0.8707,9.5281,0.1869,-0.1046,0.159
8.86,0.6232,-0.9575,9.5008,0.0405,0.0391,0.1211
8.88,0.4645,-0.9419,9.6977,-0.0422,0.0299,0.0397
8.9,0.5186,-1.1395,9.5213,-0.126,0.0633,-0.0064
8.92,0.5168,-0.8558,9.7719,-0.0795,0.0949,0.0011
8.94,0.4958,-0.9501,9.7466,-0.1229,0.0676,-0.0341
8.96,0.3939,-0.5331,9.8179,-0.0152,0.0289,-0.0319
8.98,0.3571,-0.7327,9.9873,-0.0294,0.0181,-0.009
9.0,0.2685,-0.7548,9.9152,-0.0283,-0.0149,0.0202
9.02,0.6416,-0.7626,10.3056,0.0402,0.0067,0.0092
9.04,0.321,-0.8034,9.435,-0.0031,-0.0331,0.0234
9.06,0.4241,-0.7747,9.8121,0.0251,0.0178,-0.0042
9.08,0.2641,-0.8083,9.3737,-0.013,-0.0294,-0.0001
9.1,0.2537,-0.7899,9.8751,0.0356,-0.0021,0.0022
9.12,0.5371,-0.6877,9.7096,0.0645,0.0071,-0.0177
9.14,0.2227,-0.754,9.7381,0.0562,-0.0361,-0.0112
9.16,0.3112,-0.6825,9.5606,0.1134,0.0229,-0.0112
9.18,0.4407,-0.7892,9.2926,0.1121,0.0509,-0.0428
9.2,0.4163,-0.7969,9.4024,0.1422,0.0261,-0.0431
9.22,0.2134,-0.7738,9.1943,0.1019,0.0342,0.0075
9.24,0.5003,-0.8326,9.406,0.0316,0.0327,0.0577
9.26,0.2381,-0.7247,9.2309,-0.0259,-0.0267,0.0957
9.28,0.3172,-0.7699,9.1281,-0.2209,-0.1715,0.2014
9.3,0.0591,-1.0318,9.4105,-0.3556,-0.1801,0.2254
9.32,0.0715,-0.9937,9.3381,-0.4343,-0.1411,0.2496
9.34,-0.3603,-1.0766,9.5632,-0.4358,-0.0497,0.2589
9.36,-0.5181,-1.1336,9.9944,-0.3829,0.1035,0.1808
9.38,-0.261,-1.2517,10.4775,-0.2183,0.2154,0.1352
9.4,0.5664,-1.1171,11.0629,0.0347,0.2845,-0.0296
9.42,0.7406,-1.1985,10.8473,0.3143,0.1986,-0.1163
9.44,1.0863,-0.6088,10.1509,0.4296,0.092,-0.1671
9.46,0.9808,-0.9622,9.8402,0.529,-0.0583,-0.2331
9.48,0.9043,-0.98,9.2833,0.4778,-0.1976,-0.242
9.5,0.8223,-0.5251,9.7116,0.3869,-0.1823,-0.1541
9.52,0.4373,-0.8719,9.3602,0.2042,-0.1725,-0.1918
9.54,0.4166,-0.8517,9.3047,0.0998,-0.0913,-0.1499
9.56,0.3305,-0.7738,9.416,-0.0443,0.0065,-0.0857
9.58,0.5959,-0.7293,9.6176,-0.0887,0.0639,0.0164
9.6,0.2761,-0.8439,9.5609,-0.1245,0.0629,-0.0014
9.62,0.4905,-0.5165,9.7832,-0.0789,0.0822,0.0456
9.64,0.3524,-1.0561,9.3582,-0.1051,-0.0498,0.0126
9.66,0.4487,-0.6465,10.0102,-0.0188,-0.0237,0.0301
9.68,0.2356,-0.6231,9.9333,0.0101,-0.027,0.0109
9.7,0.353,-0.7571,9.8146,-0.0375,-0.0353,-0.0037
9.72,0.4486,-0.6496,9.8507,0.0524,-0.0434,0.0055
9.74,0.3434,-0.7498,9.6759,0.0041,-0.0237,-0.0015
9.76,0.6094,-0.9165,9.739,-0.0044,-0.0222,0.0182
9.78,0.5665,-0.4855,9.993,0.0525,0.014,0.0138
9.8,0.7718,-0.7135,9.9394,0.0262,0.0208,-0.0
9.82,0.7722,-0.6203,9.9985,0.0217,0.0007,0.0309
9.84,0.606,-0.6185,9.9981,0.0186,-0.0203,0.0229
9.86,0.6213,-0.6178,9.886,0.0046,-0.0251,0.0171
9.88,0.7066,-0.5144,10.2369,0.0175,-0.0163,0.0356
9.9,0.6174,-0.674,9.9673,0.0506,-0.0204,0.0534
9.92,0.9552,-0.6407,9.9414,0.1365,0.022,0.0467
9.94,0.9563,-0.7405,9.8528,0.1176,0.0454,0.0251
9.96,0.6971,-0.6513,9.9928,0.1445,0.1172,0.0202
9.98,0.5503,-0.867,9.4045,0.0937,0.0334,-0.0374
10.0,0.6119,-0.9561,9.7601,0.0752,0.0325,-0.0666
10.02,0.6553,-0.7446,9.66,-0.0407,-0.0506,-0.112
10.04,0.6515,-0.752,9.4235,-0.2481,-0.1815,-0.2279
10.06,0.2802,-0.7238,9.5052,-0.3626,-0.2405,-0.2611
10.08,0.1979,-0.772,9.4354,-0.4796,-0.1825,-0.2811
10.1,-0.4452,-0.7066,9.4011,-0.5734,-0.092,-0.2701
10.12,-0.2007,-0.6251,10.4473,-0.3795,0.1334,-0.1434
10.14,0.2338,-0.3837,11.2343,-0.2205,0.2696,-0.0966
10.16,0.6443,-0.513,11.1372,0.0483,0.2939,0.0151
10.18,0.9631,-0.6602,10.9638,0.2389,0.1859,0.0963
10.2,1.0665,-0.6702,10.2694,0.4406,0.0535,0.1955
10.22,1.4333,-0.3529,9.9851,0.5383,-0.0816,0.2835
10.24,0.8289,-0.6989,9.3285,0.4927,-0.2397,0.2412
10.26,0.7233,-0.8746,9.433,0.4005,-0.2102,0.2738
10.28,0.5955,-0.645,9.5333,0.2457,-0.1485,0.2005
10.3,0.5843,-0.9645,9.4599,0.069,-0.066,0.1437
10.32,0.4253,-0.9509,9.5535,-0.0214,0.0373,0.092
10.34,0.2892,-1.3021,9.4473,-0.1435,0.0477,-0.0236
10.36,0.1637,-0.8543,9.5506,-0.1996,0.0908,-0.0704
10.38,0.359,-0.6679,9.7957,-0.1152,0.0637,-0.0514
10.4,0.3266,-1.0094,9.5515,-0.0628,-0.0549,-0.0638
10.42,0.3627,-1.0419,9.6434,-0.0427,-0.0159,-0.026
10.44,0.1924,-0.9221,9.645,-0.0188,-0.0394,-0.0617
10.46,0.3722,-1.0424,9.983,0.0171,-0.0041,0.0076
10.48,0.7206,-0.9567,9.6664,0.0204,-0.0315,-0.007
10.5,0.199,-0.8309,9.5288,-0.0154,-0.054,-0.0387
10.52,0.5157,-0.7114,9.786,0.0359,-0.0039,-0.0294
10.54,0.4511,-0.9183,9.7735,0.0455,-0.0484,-0.0244
10.56,0.3777,-0.9425,9.7984,0.0136,-0.0079,-0.0192
10.58,0.3262,-1.1272,9.3381,0.0518,-0.0399,-0.0717
10.6,0.4132,-0.6474,9.4587,0.1194,0.023,-0.0008
10.62,0.3803,-0.8675,9.2839,0.1238,0.0394,-0.0294
10.64,0.2029,-1.01,9.4135,0.0947,0.0283,0.0299
10.66,0.0408,-0.7808,9.2478,0.0682,-0.0075,0.0429
10.68,0.3783,-0.7429,9.374,-0.0369,0.0123,0.1137
10.7,0.3321,-0.6835,9.3426,-0.1315,-0.1479,0.1485
10.72,0.348,-0.9137,8.9749,-0.3151,-0.1602,0.1794
10.74,-0.0887,-0.8503,9.0898,-0.3359,-0.175,0.1894
10.76,-0.219,-0.9632,9.7854,-0.3974,-0.0914,0.2009
10.78,-0.2672,-1.0113,9.7248,-0.3231,0.003,0.1631
10.8,-0.0093,-1.1621,10.2555,-0.2536,0.14,0.074
10.82,0.1981,-1.1606,10.6717,-0.049,0.2238,0.0138
10.84,0.4776,-1.2338,10.6534,0.1376,0.187,-0.0343
10.86,0.6288,-1.2313,10.096,0.236,0.0612,-0.1536
10.88,0.9227,-1.0786,9.6416,0.3923,-0.0443,-0.1914
10.9,0.8217,-0.7597,9.5717,0.4104,-0.1472,-0.1801
10.92,0.593,-0.781,9.4444,0.3257,-0.1776,-0.1732
10.94,0.2822,-0.9675,8.9065,0.1897,-0.1487,-0.1686
10.96,0.7135,-0.9595,9.5063,0.0874,-0.0815,-0.1147
10.98,1.1415,-0.2619,10.2279,0.0669,0.0393,-0.0529
11.0,0.9071,-0.7228,10.0973,-0.0362,0.1014,-0.0305
11.02,0.3499,-0.743,9.5165,-0.1048,0.0278,0.0231
11.04,0.1137,-0.8253,9.4623,-0.1249,0.0498,0.0158
11.06,-0.1368,-1.1088,9.0036,-0.1197,-0.0611,0.0314
11.08,0.6662,-0.5909,10.1342,-0.0102,0.0058,-0.0016
11.1,0.0775,-1.0389,9.5463,-0.0506,-0.0476,0.0348
11.12,0.6392,-0.7586,9.9134,-0.0182,-0.0353,0.0216
11.14,0.1561,-1.0177,9.1428,-0.0421,-0.0399,-0.0035
11.16,0.6355,-0.7122,10.0387,0.0283,0.0286,0.0141
11.18,0.6785,-0.5671,9.9617,0.0357,0.0202,0.0049
11.2,-0.1148,-0.9991,8.9883,-0.0675,-0.074,0.0463
11.22,0.4489,-0.3708,10.0609,0.0169,0.0374,-0.0155
11.24,0.5858,-0.63,10.042,0.0348,-0.0337,0.0056
11.26,0.1461,-1.038,9.5654,0.0039,-0.0168,0.0389
11.28,1.7284,-0.1692,11.2322,0.0757,0.0082,0.0516
11.3,0.2087,-0.8355,9.7966,0.0448,-0.0107,0.0391
11.32,1.2529,-0.6267,10.7271,0.1482,0.0224,0.0608
11.34,0.9369,-0.8007,9.883,0.1402,0.0204,0.0334
11.36,0.9384,-0.8387,10.0644,0.1412,0.1038,0.0263
11.38,0.5346,-1.018,9.677,0.105,0.0573,-0.0358
11.4,0.6774,-0.8022,9.7261,0.0687,0.048,-0.098
11.42,0.6266,-0.7664,9.7243,-0.0471,-0.0365,-0.1293
11.44,0.6466,-0.9336,9.6717,-0.188,-0.1405,-0.1769
11.46,0.3915,-0.5981,9.691,-0.3148,-0.1975,-0.2014
11.48,0.0742,-0.7963,9.6385,-0.4429,-0.1913,-0.2455
11.5,-0.2045,-0.6147,9.7256,-0.5282,-0.1244,-0.2568
11.52,0.0172,-0.5486,10.0789,-0.4351,0.0352,-0.2116
11.54,-0.1337,-0.5433,10.6981,-0.2569,0.1817,-0.1329
11.56,0.9158,-0.1989,11.7132,0.0297,0.3109,-0.0146
11.58,0.8837,-0.5325,10.9738,0.2081,0.2208,0.0937
11.6,1.3293,-0.5179,10.4923,0.3977,0.0605,0.1397
11.62,1.0252,-0.5999,9.7442,0.4928,-0.0582,0.2285
11.64,1.0403,-0.7489,9.4502,0.4671,-0.2202,0.25
11.66,0.841,-0.7406,9.2986,0.4157,-0.224,0.2056
11.68,0.7682,-0.9175,9.5714,0.2313,-0.1243,0.1927
11.7,0.5714,-0.9384,9.4585,0.1102,-0.0716,0.1069
11.72,0.342,-0.8999,9.0471,-0.0376,0.0261,0.0772
11.74,0.3877,-0.9516,9.6493,-0.1394,0.0672,0.0344
11.76,0.6418,-0.8199,9.7609,-0.1046,0.0726,0.0092
11.78,0.4595,-0.8461,9.7905,-0.0873,0.0524,0.0037
11.8,0.2289,-1.1352,9.744,-0.0677,-0.0171,-0.0111
11.82,0.411,-0.8894,9.7626,-0.068,-0.0311,-0.0165
11.84,0.5124,-0.8148,9.9446,0.0188,-0.0191,-0.0544
11.86,0.1398,-0.9369,9.6292,-0.0683,-0.0647,-0.0345
11.88,0.461,-1.0073,9.7375,0.0006,-0.0484,-0.0187
11.9,0.7103,-0.8765,9.7945,0.0359,0.0122,0.0062
11.92,0.6146,-0.825,9.6045,0.0373,-0.037,-0.0294
11.94,0.35,-0.7993,9.7318,0.0191,0.0125,-0.0071
11.96,0.2033,-0.8376,9.3595,-0.0138,0.002,-0.0193
11.98,0.1589,-0.9138,9.6144,0.0123,-0.0223,-0.0119
12.0,0.4489,-0.6332,9.8343,0.0699,0.0286,0.0006
12.02,0.2274,-1.0652,9.6625,-0.0235,-0.0461,-0.0262
12.04,0.3588,-0.8904,9.6927,0.0287,-0.0265,-0.0324
12.06,0.3937,-0.7816,9.5122,0.0887,0.0063,-0.0186
12.08,0.7601,-0.9408,9.6682,0.1213,0.0147,-0.0291
12.1,0.5995,-0.5466,9.5147,0.1225,0.0167,-0.0382
12.12,0.4531,-0.9155,9.4454,0.1299,0.0814,-0.0042
12.14,0.415,-0.8953,9.3402,0.1076,0.0817,0.048
12.16,0.3728,-0.9648,9.2256,0.0044,0.0224,0.0864
12.18,0.5181,-0.8649,9.4027,-0.0623,-0.0621,0.153
12.2,0.3032,-0.7037,9.2541,-0.2483,-0.1745,0.1869
12.22,-0.0428,-0.8001,8.9014,-0.3889,-0.2315,0.2182
12.24,-0.1708,-0.9217,9.3083,-0.4435,-0.1553,0.2521
12.26,-0.4113,-0.805,9.7631,-0.4199,-0.0137,0.2237
12.28,-0.2413,-1.0055,10.5258,-0.3113,0.1115,0.1592
12.3,0.0726,-1.0073,10.7622,-0.1645,0.234,0.0518
12.32,0.5413,-1.1325,10.9883,0.0734,0.3103,-0.0378
12.34,0.6497,-1.2638,10.3036,0.2497,0.1573,-0.1434
12.36,1.4113,-0.8957,10.1208,0.4847,0.0635,-0.1923
12.38,0.78,-1.0421,9.4036,0.4481,-0.1165,-0.253
12.4,0.933,-0.944,9.3005,0.4282,-0.1956,-0.2318
12.42,0.3907,-0.6371,9.2643,0.2967,-0.2101,-0.2385
12.44,0.5245,-0.7339,9.2895,0.1462,-0.1471,-0.1671
12.46,0.506,-0.6311,9.4251,0.0698,-0.0276,-0.0812
12.48,0.6707,-0.7462,9.4328,-0.0887,0.026,-0.0287
12.5,0.4484,-0.675,9.7864,-0.0981,0.0582,-0.017
12.52,0.4217,-0.6022,9.4781,-0.1383,0.017,-0.003
12.54,0.2526,-0.7704,9.549,-0.1125,0.0149,0.055
12.56,0.5586,-0.7737,9.8875,-0.0745,0.0372,0.0219
12.58,0.4288,-0.9333,9.8869,-0.042,-0.0528,-0.0055
12.6,0.5974,-0.7748,10.1175,0.0256,-0.0129,0.0394
12.62,0.2198,-1.0324,9.617,-0.061,-0.0643,-0.0012
12.64,1.0621,-0.7102,10.0221,0.0493,-0.005,0.0149
12.66,0.5394,-0.6946,9.7789,0.0106,-0.0374,-0.0061
12.68,0.579,-0.7383,9.7193,0.0284,0.0125,0.0025
12.7,0.7095,-0.5534,9.9606,0.0682,0.0251,0.0161
12.72,0.8881,-0.7231,10.029,0.0553,-0.0169,-0.005
12.74,0.6614,-0.7483,9.8078,0.003,-0.0489,-0.0079
12.76,0.7726,-0.3695,10.1817,0.0355,0.0291,0.0105
12.78,0.4835,-0.6629,9.9767,-0.0081,-0.0715,0.0444
12.8,0.8023,-0.7539,9.9025,0.0233,-0.049,0.0246
12.82,0.6591,-0.5733,9.8275,0.0385,-0.0139,0.0418
12.84,1.0255,-0.5564,10.2341,0.1351,0.0409,0.0401
12.86,0.5938,-0.7094,9.6658,0.0915,0.067,0.0247
12.88,0.7211,-0.5614,9.9257,0.1389,0.0465,-0.0023
12.9,0.7194,-0.7315,9.8275,0.0733,0.0603,-0.0578
12.92,0.5571,-0.9691,9.5836,0.0103,0.018,-0.0963
12.94,0.5915,-0.8365,9.518,-0.1254,-0.0851,-0.1183
12.96,0.533,-0.5956,9.7057,-0.2666,-0.1559,-0.1892
12.98,0.3233,-0.7456,9.3507,-0.4019,-0.1955,-0.2031
13.0,0.1553,-0.5744,9.8245,-0.4507,-0.1377,-0.2186
13.02,0.1631,-0.3694,10.2418,-0.4215,-0.0171,-0.1866
13.04,0.008,-0.6152,10.7771,-0.3231,0.1455,-0.0948
13.06,0.3558,-0.6327,11.1651,-0.1278,0.2348,-0.07
13.08,0.8886,-0.6388,11.0764,0.1157,0.2448,0.0715
13.1,1.1722,-0.4744,10.5703,0.3456,0.1721,0.1428
13.12,1.2146,-0.545,9.9649,0.4013,-0.0239,0.1898
13.14,1.1982,-0.9965,9.7109,0.4846,-0.175,0.2444
13.16,0.8647,-0.7721,9.5197,0.4322,-0.2037,0.247
13.18,0.8263,-0.8662,9.6409,0.3397,-0.1919,0.2385
13.2,0.8371,-0.6748,9.7982,0.195,-0.0777,0.154
13.22,0.4435,-0.606,9.7165,0.0589,0.002,0.1141
13.24,0.6453,-0.7698,9.8199,-0.0197,0.1003,0.0625
13.26,0.3465,-0.9967,9.5889,-0.1247,0.099,-0.0088
13.28,0.4564,-0.9149,9.8146,-0.1076,0.0746,0.0064
13.3,0.3637,-0.7544,9.791,-0.0856,0.0469,-0.0241
13.32,0.4739,-0.873,9.6335,-0.0685,-0.0163,-0.037
13.34,0.2769,-0.8986,9.7336,-0.0196,-0.0529,-0.0094
13.36,0.3825,-0.8565,9.6026,-0.0182,-0.0092,-0.0121
13.38,0.4904,-0.8555,9.7589,0.0156,0.0,0.0069
13.4,0.3139,-0.8346,9.6304,0.0157,0.0079,-0.0057
13.42,0.4883,-0.8729,9.7892,0.0448,0.0075,-0.0123
13.44,0.2994,-0.8619,9.4408,0.0151,-0.0248,-0.0232
13.46,0.3193,-1.036,9.3544,0.0454,-0.0077,-0.0166
13.48,0.2089,-0.8886,9.4135,-0.0519,-0.0232,-0.0236
13.5,0.2604,-0.9532,9.4911,-0.0077,-0.0495,-0.0243
13.52,0.3046,-0.8135,9.6405,0.004,-0.0399,-0.0153
13.54,0.4552,-0.8431,9.7219,0.0329,-0.0032,-0.0204
13.56,0.304,-0.9753,9.5689,0.0343,-0.0168,-0.0359
13.58,0.4581,-0.6981,9.7283,0.0851,0.0344,0.0163
13.6,0.3398,-0.8697,9.5951,0.1366,-0.0106,-0.0323
13.62,0.483,-0.8368,9.5081,0.0971,0.0932,-0.0355
13.64,0.1263,-0.8641,9.3991,0.1243,0.0868,-0.0256
13.66,0.5241,-0.9352,9.3024,0.1012,0.0796,-0.0237
13.68,0.5468,-0.7046,9.56,0.0394,0.0331,0.1047
13.7,0.4354,-0.9654,9.2672,-0.1213,-0.0876,0.1368
13.72,0.3607,-0.9094,9.1487,-0.2746,-0.1655,0.1881
13.74,-0.0224,-0.9863,9.3371,-0.398,-0.2188,0.2414
13.76,-0.337,-1.0231,9.4367,-0.4866,-0.1708,0.2653
13.78,-0.3088,-1.1042,9.8493,-0.4975,-0.0155,0.2115
13.8,-0.1091,-0.9893,10.2225,-0.3483,0.1487,0.17
13.82,0.0343,-1.0869,11.2433,-0.1681,0.279,0.0578
13.84,0.7369,-1.2358,10.9097,0.1087,0.2757,-0.0788
13.86,0.7772,-1.0635,10.4923,0.3217,0.1625,-0.1605
13.88,1.4437,-0.9753,9.9552,0.4646,0.0298,-0.1958
13.9,1.1177,-0.9163,9.7765,0.5086,-0.139,-0.2283
13.92,0.9646,-0.9203,9.3167,0.4162,-0.2366,-0.2659
13.94,0.6975,-0.6412,9.2571,0.3531,-0.1858,-0.2392
13.96,0.5388,-0.7153,9.3346,0.1709,-0.1465,-0.1368
13.98,0.4408,-0.5277,9.3673,0.0271,-0.0146,-0.1316
14.0,0.5556,-0.8334,9.5593,-0.0723,0.0252,-0.0647
14.02,0.6638,-0.5147,9.6476,-0.0924,0.0847,0.0315
14.04,0.3752,-0.4935,9.5398,-0.132,0.0437,0.0318
14.06,0.692,-0.5286,10.1622,-0.1103,0.0554,0.0597
14.08,0.6635,-0.5689,10.1151,-0.029,-0.0091,0.0447
14.1,0.6616,-0.5399,10.0107,-0.0538,0.0249,0.0354
14.12,0.5086,-0.7656,10.0469,-0.0312,-0.0185,0.0331
14.14,0.5398,-0.6538,10.027,-0.0197,-0.0462,-0.0032
14.16,0.5437,-0.6401,10.1814,0.0162,0.0192,-0.0082
14.18,0.642,-0.4615,10.104,0.0495,-0.0261,0.0177
14.2,0.6859,-0.5526,10.2679,-0.0144,-0.011,-0.0254
14.22,0.9505,-0.6644,10.1004,0.072,-0.0078,0.0767
14.24,0.9263,-0.8739,10.3314,0.051,-0.0386,0.0063
14.26,0.8318,-0.6839,9.9522,0.1121,-0.0055,0.0554
14.28,0.9021,-0.6894,9.8716,0.1337,0.063,0.0332
14.3,0.7442,-1.0231,9.8254,0.1221,0.0518,0.0399
14.32,0.9626,-0.7638,9.7205,0.134,0.0537,-0.0046
14.34,0.6671,-0.9802,9.5399,0.0278,0.0174,-0.0427
14.36,0.4506,-1.0248,9.4089,-0.0931,-0.062,-0.1258
14.38,0.5537,-0.8866,9.6363,-0.1931,-0.1318,-0.155
14.4,0.4103,-0.5305,9.5866,-0.3598,-0.1853,-0.2338
14.42,0.2599,-0.7892,9.6897,-0.4995,-0.1758,-0.209
14.44,-0.0908,-0.8501,9.6602,-0.4971,-0.1112,-0.2447
14.46,0.1096,-0.2901,10.3019,-0.3439,0.0623,-0.1536
14.48,0.4154,-0.4319,11.071,-0.265,0.2082,-0.1706
14.5,0.4714,-0.6326,11.0647,-0.0444,0.2353,-0.0456
14.52,1.1379,-0.4323,11.1635,0.1968,0.2684,0.1028
14.54,1.1487,-0.7056,10.1617,0.3868,0.1119,0.1611
14.56,1.3592,-0.5303,9.9096,0.5209,-0.0811,0.2444
14.58,1.0387,-0.6356,9.6518,0.5089,-0.1586,0.256
14.6,0.9834,-0.8825,9.5502,0.4242,-0.2485,0.2286
14.62,0.7465,-0.8418,9.5212,0.2467,-0.1569,0.1788
14.64,0.5925,-0.912,9.2499,0.0888,-0.0859,0.1316
14.66,0.4973,-0.9817,9.4358,-0.006,0.0574,0.0749
14.68,0.4434,-1.0692,9.6111,-0.1128,0.0436,0.0203
14.7,0.1928,-0.892,9.3927,-0.1455,0.0883,0.0222
14.72,0.5158,-0.6208,9.5578,-0.1254,0.0486,-0.0272
14.74,0.3452,-0.7834,9.5647,-0.1344,0.0209,-0.0206
14.76,0.6958,-0.9075,9.8795,-0.0498,0.0,-0.0318
14.78,0.6659,-0.7055,9.7683,-0.0152,0.0121,0.036
14.8,0.352,-0.7704,9.6374,-0.0334,-0.0589,-0.0131
14.82,0.5943,-0.8392,9.6629,0.0335,-0.0244,-0.0172
14.84,0.4063,-0.6657,9.4125,-0.0026,-0.0071,0.0084
14.86,0.5616,-0.8206,9.7388,0.0233,-0.0057,-0.0025
14.88,0.51,-0.8129,9.5471,-0.0004,-0.0195,0.0189
14.9,0.3433,-0.8949,9.6318,-0.025,-0.0008,-0.0172
14.92,0.3834,-0.8502,9.7844,-0.007,0.0076,0.0223
14.94,0.377,-0.9315,9.6516,-0.0065,-0.0572,-0.022
14.96,0.3159,-0.9774,9.5288,0.027,-0.0634,-0.039
14.98,0.5346,-0.9401,9.4525,0.0944,-0.0035,-0.0146
15.0,0.8234,-0.774,9.6422,0.157,0.0223,-0.0186
15.02,0.4318,-0.7043,9.2571,0.1376,0.0155,-0.021
15.04,0.4996,-0.7929,9.449,0.1137,0.1131,0.0066
15.06,0.5921,-0.7378,9.4319,0.0597,0.0519,0.0823
15.08,0.3492,-0.8046,9.1384,0.0148,-0.0621,0.1031
15.1,0.3001,-0.805,9.1908,-0.1783,-0.1116,0.1674
15.12,0.2819,-0.6506,9.3601,-0.3054,-0.189,0.2179
15.14,-0.0373,-0.8722,9.2681,-0.4379,-0.1897,0.2006
15.16,-0.1949,-1.0519,9.3463,-0.4702,-0.125,0.2246
15.18,-0.2066,-0.9159,9.9731,-0.4371,-0.0091,0.183
15.2,0.0077,-1.0442,10.1532,-0.3236,0.1609,0.0814
15.22,0.4243,-1.2062,10.7159,-0.0838,0.2328,0.0587
15.24,0.9893,-1.1205,11.0577,0.1415,0.2732,-0.0093
15.26,0.8696,-1.232,10.1944,0.3302,0.1264,-0.1119
15.28,1.373,-0.7661,9.9453,0.4781,0.0054,-0.1657
15.3,1.0258,-0.8677,9.4059,0.4811,-0.1441,-0.2424
15.32,0.8248,-0.5219,9.5819,0.4178,-0.2061,-0.2256
15.34,0.8979,-0.65,9.6635,0.2444,-0.1914,-0.181
15.36,0.8139,-0.809,9.5702,0.1249,-0.0823,-0.158
15.38,0.7199,-0.5602,9.6265,0.0304,-0.0052,-0.063
15.4,0.6638,-0.8235,9.5173,-0.0937,0.0594,-0.0461
15.42,0.4619,-0.7721,9.6556,-0.0767,0.0783,-0.0063
15.44,0.5654,-0.6804,9.6362,-0.1671,0.0424,0.0148
15.46,0.4356,-0.6991,9.8234,-0.0933,0.0002,0.0336
15.48,0.67,-0.6447,10.0999,-0.0346,-0.0195,0.0243
15.5,0.7946,-0.95,9.9863,-0.0016,-0.0299,0.0231
15.52,0.9479,-0.75,9.9928,0.0237,-0.0124,0.0141
15.54,0.5894,-0.6637,9.7777,-0.0178,-0.052,-0.0133
15.56,0.7389,-0.8418,10.009,0.0092,-0.0542,-0.0035
15.58,0.6952,-0.7261,9.8783,0.0025,0.0226,0.0106
15.6,0.6295,-0.7622,10.1188,0.0379,-0.0196,0.0194
15.62,0.6858,-0.6587,9.77,0.0174,-0.0556,-0.0085
15.64,0.6102,-0.7821,10.1345,0.035,-0.0549,0.072
15.66,0.8054,-0.9588,9.8201,0.0814,-0.0016,0.0234
15.68,0.847,-0.8587,9.7702,0.1201,0.0248,0.0571
15.7,0.8444,-0.8807,9.9094,0.1875,0.0733,0.0188
15.72,0.8406,-0.9852,9.6535,0.1554,0.0873,0.0428
15.74,1.0546,-0.7632,9.8865,0.1661,0.0767,-0.0277
15.76,0.8131,-0.7489,9.6526,0.0398,0.0217,-0.1254
15.78,0.5507,-0.8812,9.3311,-0.1569,-0.1375,-0.1756
15.8,0.5524,-0.8097,9.4393,-0.3039,-0.2072,-0.2144
15.82,0.7405,-0.4556,9.7841,-0.4595,-0.2415,-0.2608
15.84,0.0662,-0.4682,9.7191,-0.5468,-0.1562,-0.299
15.86,-0.2121,-0.5345,9.8961,-0.5483,-0.0083,-0.2529
15.88,0.1368,-0.3688,10.589,-0.4164,0.1783,-0.1795
15.9,0.3717,-0.5875,11.3493,-0.1985,0.2566,-0.0906
15.92,0.7261,-0.6997,11.2949,0.1125,0.3186,0.0253
15.94,1.593,-0.4364,11.1216,0.3563,0.1947,0.1603
15.96,1.4866,-0.4593,9.8785,0.5136,0.0309,0.2444
15.98,1.4458,-0.6531,9.527,0.5582,-0.1631,0.2838
16.0,1.3292,-0.4625,9.5825,0.5233,-0.2326,0.2633
16.02,0.956,-0.9098,9.1071,0.3505,-0.2508,0.2556
16.04,0.8902,-0.8695,9.3846,0.1956,-0.1525,0.1842
16.06,0.6887,-0.8518,9.474,0.0135,0.0215,0.1083
16.08,0.6964,-0.9788,9.5565,-0.0996,0.0391,0.0452
16.1,0.5633,-0.7771,9.5965,-0.1138,0.0952,-0.0055
16.12,0.2226,-0.8816,9.3834,-0.1688,0.052,-0.0226
16.14,0.3936,-1.0905,9.4417,-0.1165,-0.0143,-0.0593
16.16,0.4656,-0.9058,9.7105,-0.1297,0.0221,-0.0121
16.18,0.2905,-1.0191,9.6227,-0.044,-0.0271,-0.0468
16.2,0.6002,-0.9117,9.7752,-0.0226,-0.0073,-0.0274
16.22,0.3245,-0.8633,9.755,0.0021,0.0221,-0.0108
16.24,0.5321,-1.0375,9.7508,0.0135,-0.0024,-0.0206
16.26,0.5617,-0.8153,9.5672,-0.0207,-0.0135,-0.0399
16.28,0.5591,-0.7408,9.7514,0.0337,-0.0285,-0.0398
16.3,0.5591,-0.8628,9.3939,0.0452,-0.0216,-0.0429
16.32,0.62,-0.8903,9.5857,0.0962,0.0185,-0.0126
16.34,0.4465,-0.9229,9.4866,0.1432,0.0711,-0.0655
16.36,0.5935,-0.8902,9.4019,0.1492,0.087,-0.0111
16.38,0.4477,-0.5559,9.2746,0.1304,0.08,0.0063
16.4,0.8557,-0.716,9.5905,0.111,0.0511,0.0721
16.42,0.6928,-0.9222,9.4245,-0.0352,-0.0209,0.1369
16.44,0.2933,-0.7482,8.9015,-0.2157,-0.1779,0.1712
16.46,0.3617,-0.7661,9.2761,-0.3442,-0.1987,0.2592
16.48,-0.0753,-0.8943,9.003,-0.4878,-0.2489,0.2552
16.5,-0.2648,-0.9195,9.4081,-0.5479,-0.109,0.3091
16.52,-0.3802,-1.0576,9.9461,-0.5127,0.0773,0.2242
16.54,-0.1474,-1.1611,10.7521,-0.3197,0.2229,0.1639
16.56,0.4947,-1.1819,11.126,-0.1001,0.2832,0.032
16.58,0.6593,-1.1446,10.9289,0.17,0.2863,-0.0864
16.6,1.3986,-0.9756,10.321,0.415,0.1225,-0.1949
16.62,1.1289,-1.228,9.5709,0.5283,-0.0647,-0.2771
16.64,1.1092,-0.9435,9.2974,0.5427,-0.1871,-0.2821
16.66,0.9275,-1.0638,9.1345,0.4087,-0.2619,-0.286
16.68,0.6479,-0.8422,9.104,0.2795,-0.2017,-0.2287
16.7,0.5832,-0.8906,9.0764,0.0861,-0.085,-0.1561
16.72,0.4387,-0.5754,9.3238,-0.0817,-0.0093,-0.0853
16.74,0.5265,-0.702,9.5838,-0.139,0.0659,0.004
16.76,0.7038,-0.8549,9.6344,-0.1254,0.0874,0.0021
16.78,0.6264,-0.76,9.7522,-0.1203,0.0403,0.0316
16.8,0.5393,-0.773,9.69,-0.0906,0.0338,0.0171
16.82,0.5336,-0.7581,9.5378,-0.0843,-0.0172,0.0669
16.84,0.8558,-0.9335,9.9856,-0.0641,0.0083,0.0291
16.86,0.66,-0.5392,10.0061,0.0071,0.0103,0.064
16.88,0.8363,-0.8674,9.8463,0.0065,-0.0343,-0.0022
16.9,0.5367,-0.7694,9.7309,-0.0392,-0.0144,0.0066
16.92,0.681,-0.4271,9.8831,-0.0073,-0.003,0.0383
16.94,0.699,-0.7489,9.914,-0.0218,-0.0201,0.0324
16.96,0.4905,-0.7542,9.5961,-0.0609,-0.0086,-0.0304
16.98,1.0219,-0.7022,10.1305,0.0498,-0.0231,0.023
17.0,0.9841,-0.8474,9.9105,0.0472,-0.0078,0.0387
17.02,0.9774,-0.5365,10.2383,0.0566,0.0291,0.0809
17.04,0.9682,-0.8787,10.0811,0.0791,0.0575,0.0742
17.06,1.0035,-0.7522,9.974,0.1604,0.0566,-0.0252
17.08,0.9872,-0.6633,10.0513,0.1278,0.0993,0.0224
17.1,0.8651,-0.7844,9.8096,0.0878,0.0815,0.0164
17.12,0.4539,-1.1753,9.4379,-0.025,-0.0104,-0.0445
17.14,0.7132,-1.0263,9.5518,-0.1105,-0.0734,-0.0864
17.16,0.7542,-0.7778,9.517,-0.2677,-0.1501,-0.2157
17.18,0.3793,-0.7656,9.5516,-0.341,-0.2211,-0.2087
17.2,0.3763,-0.8848,9.5005,-0.4553,-0.1781,-0.2411
17.22,0.0184,-0.5956,9.8093,-0.4656,-0.0428,-0.2265
17.24,-0.0852,-0.7557,10.2819,-0.4094,0.0813,-0.1946
17.26,0.4879,-0.4874,11.3967,-0.168,0.2413,-0.0781
17.28,0.6183,-0.7158,11.105,0.0832,0.2676,-0.0001
17.3,1.3466,-0.4722,10.9426,0.2625,0.221,0.0988
17.32,1.4076,-0.8301,10.1984,0.4168,0.0788,0.1487
17.34,1.2768,-0.6134,9.7221,0.5027,-0.112,0.2432
17.36,1.1858,-0.7794,9.401,0.4405,-0.2111,0.2536
17.38,0.7543,-0.9546,9.4167,0.3022,-0.2126,0.2051
17.4,1.057,-0.8024,9.6473,0.2159,-0.1086,0.2038
17.42,0.6137,-0.8985,9.5351,0.0509,-0.0506,0.1096
17.44,0.6316,-1.1581,9.7128,-0.0337,0.026,0.0464
17.46,0.5245,-1.0349,9.5355,-0.1592,0.0881,0.0087
17.48,0.3791,-0.7947,9.3138,-0.1213,0.0773,-0.0352
17.5,0.3813,-0.9163,9.5707,-0.1138,0.0741,-0.0258
17.52,0.5059,-0.729,9.7593,-0.0612,0.0258,-0.0238
17.54,0.5291,-0.8072,9.6049,-0.0708,-0.0249,-0.0692
17.56,0.6109,-0.9977,9.4495,-0.0537,-0.0183,-0.0441
17.58,0.7439,-0.9505,9.7101,-0.021,-0.0122,0.0078
17.6,0.1901,-1.1091,9.4428,-0.0341,-0.0475,-0.0129
17.62,0.5313,-0.9472,9.5721,-0.0058,-0.0097,-0.0056
17.64,0.3501,-0.9912,9.4017,-0.0197,-0.0514,0.0064
17.66,0.4897,-1.0124,9.6511,-0.0107,0.0036,-0.0358
17.68,0.8422,-0.9761,9.7487,0.0229,0.0032,-0.0287
17.7,0.755,-0.945,9.6308,0.0664,0.0588,-0.0519
17.72,0.4091,-1.1174,9.4249,0.0572,-0.0158,-0.0427
17.74,0.7568,-0.7833,9.7353,0.1586,0.1193,0.0052
17.76,0.5328,-0.6779,9.2598,0.093,0.0745,0.0196
17.78,0.5353,-0.919,9.417,0.1019,0.0509,0.042
17.8,0.5692,-0.8512,9.1769,-0.0172,-0.0256,0.1066
17.82,0.5409,-0.9682,8.8108,-0.1829,-0.1457,0.13
17.84,0.1942,-1.072,9.0251,-0.3311,-0.1906,0.1977
17.86,0.045,-1.0681,9.1985,-0.4349,-0.208,0.2426
17.88,-0.2089,-1.0156,9.2898,-0.4868,-0.0993,0.2553
17.9,-0.1616,-1.1072,9.6642,-0.4583,0.0303,0.1565
17.92,0.3033,-0.9004,10.83,-0.2824,0.1815,0.1379
17.94,0.3991,-1.3492,10.8334,-0.097,0.268,0.0418
17.96,1.0037,-1.168,11.101,0.166,0.2678,-0.0522
17.98,0.8511,-1.123,10.3166,0.3009,0.0982,-0.1336
18.0,1.3628,-0.9975,9.8104,0.4877,-0.0125,-0.1747
18.02,1.1835,-1.0395,9.2298,0.4646,-0.1699,-0.2739
18.04,1.2055,-1.1001,9.029,0.4137,-0.2031,-0.2343
18.06,0.7839,-0.7855,9.3275,0.2837,-0.174,-0.1994
18.08,0.6093,-0.8986,9.1438,0.1307,-0.1111,-0.1286
18.1,0.4194,-0.9008,9.155,-0.043,-0.0272,-0.1163
18.12,0.3941,-0.8532,9.3918,-0.1026,0.0477,-0.0408
18.14,0.5405,-0.7554,9.6225,-0.1254,0.0889,0.0084
18.16,0.4266,-0.8013,9.4189,-0.1213,0.0455,0.0446
18.18,0.4966,-0.7963,9.6694,-0.1171,0.0277,0.0173
18.2,0.7057,-0.7375,10.0137,-0.048,0.0215,0.0558
18.22,0.8548,-0.5849,9.7889,-0.0307,-0.0367,0.0428
18.24,0.8993,-0.5626,9.8921,0.013,-0.04,0.0145
18.26,0.5073,-0.6575,9.651,-0.0574,-0.0359,0.0378
18.28,0.7283,-0.8475,9.6961,-0.0032,-0.0338,0.0147
18.3,0.5057,-0.7771,9.7707,0.0134,0.0256,0.0308
18.32,0.6777,-0.8574,9.6635,-0.0051,-0.0045,-0.0218
18.34,0.9075,-0.6532,9.9782,0.0306,-0.0002,0.008
18.36,0.7069,-0.7762,9.6662,-0.0332,-0.0243,-0.0129
18.38,0.7665,-0.809,10.0706,-0.0034,0.0212,0.0097
18.4,0.878,-0.5788,9.7855,-0.009,-0.0025,0.01
18.42,1.0034,-0.6945,9.8496,0.0209,0.0038,0.0224
18.44,0.9358,-0.8984,9.8506,0.0189,-0.0425,0.0092
18.46,0.7845,-0.9439,9.8019,-0.0208,-0.0262,0.0214
18.48,1.1024,-0.5794,10.1392,-0.0002,-0.0391,0.0114
18.5,0.882,-0.7441,9.8265,-0.0119,-0.0245,0.0182
18.52,0.9031,-0.5663,10.116,0.0788,0.0198,0.0442
18.54,0.681,-0.9642,9.4752,0.0483,0.0266,0.0169
18.56,0.8642,-0.7285,9.6941,0.1085,0.0339,0.0256
18.58,0.9532,-0.9644,9.6228,0.1272,0.063,0.0283
18.6,0.702,-0.9467,9.5137,0.0829,0.0669,-0.0745
18.62,1.0772,-0.6653,9.7605,0.0324,0.027,-0.0663
18.64,0.7327,-0.7673,9.3505,-0.108,-0.1037,-0.1506
18.66,0.6273,-0.9698,9.5113,-0.2186,-0.1555,-0.1671
18.68,0.4976,-0.8065,9.6354,-0.3706,-0.1962,-0.2055
18.7,-0.0451,-0.5669,9.5353,-0.4901,-0.1025,-0.2073
18.72,0.3464,-0.5146,10.0615,-0.4639,-0.0186,-0.1995
18.74,0.1115,-0.4348,10.5983,-0.3832,0.1342,-0.1307
18.76,0.2627,-0.3265,11.4469,-0.1311,0.2369,-0.0589
18.78,0.7337,-0.644,11.3074,0.0559,0.2754,0.0052
18.8,1.0593,-0.4277,10.8611,0.2595,0.1967,0.1197
18.82,1.5395,-0.1991,10.2464,0.4042,0.0665,0.2266
18.84,1.5902,-0.7565,9.7673,0.5058,-0.0754,0.2434
18.86,1.1188,-0.817,9.282,0.3868,-0.1971,0.2616
18.88,0.9977,-0.8256,9.3906,0.3659,-0.1891,0.2236
18.9,0.8232,-1.0117,9.3428,0.1867,-0.1251,0.1727
18.92,0.3794,-1.0435,9.319,0.0532,-0.0684,0.0891
18.94,0.6415,-0.9098,9.4634,-0.0747,0.012,0.0509
18.96,0.5541,-0.7935,9.5725,-0.1201,0.0904,0.0416
18.98,0.5186,-0.8206,9.5761,-0.1744,0.1042,-0.0003
19.0,0.3478,-0.8785,9.4585,-0.1143,0.0166,-0.0735
19.02,0.7115,-0.9189,9.6359,-0.0339,0.037,-0.015
19.04,0.1962,-0.7695,9.7833,-0.0637,-0.0217,-0.0305
19.06,0.3733,-0.5831,9.6957,-0.0457,-0.0312,-0.0129
19.08,0.4762,-0.8894,9.4955,0.0129,0.0158,-0.026
19.1,0.5412,-1.0525,9.5425,-0.0219,0.0157,0.0138
19.12,0.5376,-0.9127,9.5398,-0.0071,0.0339,-0.0157
19.14,0.4923,-0.9598,9.329,0.01,0.0434,0.0152
19.16,0.188,-0.9673,9.2161,-0.0433,-0.069,-0.0214
19.18,0.5156,-0.9815,9.7394,0.006,-0.0423,0.0145
19.2,0.2763,-0.9478,9.432,0.0114,-0.0263,0.0011
19.22,0.7535,-1.0239,9.6343,0.053,0.0024,-0.0433
19.24,0.8761,-0.8486,9.668,0.0494,-0.0039,-0.0426
19.26,0.4094,-0.8175,9.4674,0.1006,0.0345,-0.0357
19.28,0.6881,-0.8706,9.2701,0.1152,0.0848,-0.0599
19.3,0.6737,-0.6799,9.3519,0.1095,0.1082,-0.0403
19.32,0.6784,-0.7247,9.333,0.0831,0.0807,0.0035
19.34,0.6908,-0.6655,9.0995,0.0026,0.0154,0.0944
19.36,0.3813,-0.9345,9.1041,-0.1334,-0.1325,0.1354
19.38,0.3632,-0.9681,8.8739,-0.2569,-0.2127,0.2111
19.4,-0.1457,-0.9087,9.218,-0.4215,-0.1989,0.205
19.42,0.0408,-0.8726,8.9235,-0.4896,-0.14,0.2214
19.44,-0.2468,-1.0911,9.6014,-0.4798,-0.0491,0.2084
19.46,-0.1738,-1.4564,10.1335,-0.3704,0.1388,0.1789
19.48,0.2598,-1.2293,10.9197,-0.1768,0.231,0.0714
19.5,0.2689,-1.2506,10.8936,0.0162,0.3008,-0.0134
19.52,0.835,-1.0621,10.924,0.2573,0.165,-0.0965
19.54,0.9489,-0.8931,9.9527,0.401,0.0711,-0.2019
19.56,1.2343,-0.8881,9.2599,0.4903,-0.1116,-0.2476
19.58,0.9615,-1.0478,9.1935,0.462,-0.2155,-0.2176
19.6,0.8247,-0.6612,9.3128,0.3391,-0.1921,-0.1834
19.62,0.7381,-0.7236,9.1177,0.1667,-0.1355,-0.2075
19.64,0.6559,-0.7749,9.4343,0.0524,-0.0491,-0.1246
19.66,0.4846,-0.7674,9.638,-0.0531,0.0455,-0.0811
19.68,0.745,-0.9551,9.3702,-0.1343,0.0611,-0.0036
19.7,0.8297,-0.6203,9.7599,-0.1171,0.0904,0.058
19.72,0.5676,-0.7199,9.7686,-0.1079,0.0568,0.0326
19.74,0.8233,-0.8697,9.8269,-0.0863,-0.0011,0.0167
19.76,0.6969,-0.9946,9.9354,-0.0572,-0.0398,0.0282
19.78,0.8162,-0.8105,9.995,-0.0519,-0.0325,0.0198
19.8,0.8168,-0.8787,9.9479,0.0432,0.0177,0.0093
19.82,0.893,-0.4158,9.9339,0.0584,0.0479,0.0274
19.84,0.9378,-0.783,10.0105,0.0311,-0.0004,0.0324
19.86,1.2494,-0.6124,10.0608,-0.012,0.0029,0.031
19.88,0.639,-0.7215,9.8329,0.0141,0.0199,0.0137
19.9,0.8269,-0.6429,9.9937,0.0009,0.0312,0.0174
19.92,0.7463,-0.652,9.8558,0.0161,-0.0159,-0.0338
19.94,0.7958,-0.9713,9.8878,-0.0212,-0.0348,0.0641
19.96,1.0943,-0.6529,9.7213,0.0408,-0.0184,0.0423
19.98,0.774,-0.4913,9.8444,0.0432,0.0164,0.0295
20.0,0.8333,-0.9449,9.9194,0.103,0.0119,0.0285
20.02,1.1337,-0.7315,9.7403,0.1093,0.027,0.0258
20.04,0.9955,-0.8468,9.742,0.1177,0.0752,0.0069
20.06,0.9495,-0.8639,9.652,0.0656,0.0724,-0.031
20.08,0.887,-0.8886,9.5401,-0.0556,-0.0169,-0.1141
20.1,0.6937,-0.7528,9.5284,-0.1672,-0.0904,-0.1883
20.12,0.7866,-0.5269,9.7442,-0.2685,-0.163,-0.177
20.14,0.2421,-0.8188,9.4348,-0.4079,-0.1894,-0.2395
20.16,0.0845,-0.4549,9.6387,-0.4911,-0.1229,-0.2397
20.18,0.1252,-0.475,10.4673,-0.4502,0.0346,-0.169
20.2,0.16,-0.5876,10.6268,-0.34,0.1319,-0.1507
20.22,0.1662,-0.5224,11.1175,-0.07,0.2753,-0.0048
20.24,1.0807,-0.7174,11.0905,0.1454,0.224,0.0631
20.26,1.3888,-0.6506,10.3805,0.3316,0.1386,0.1275
20.28,1.3164,-0.747,9.7899,0.3879,-0.0211,0.1558
20.3,1.2424,-0.6547,9.3576,0.4682,-0.1274,0.2387
20.32,0.8681,-0.7953,9.3077,0.3962,-0.1682,0.2293
20.34,0.8644,-0.6658,9.3676,0.2851,-0.1574,0.1995
20.36,0.7199,-1.132,9.4761,0.1223,-0.0444,0.1397
20.38,0.6469,-0.9741,9.3889,-0.0185,0.053,0.1105
20.4,0.7132,-0.9338,9.3723,-0.0836,0.0537,0.0687
20.42,0.4808,-1.2295,9.4782,-0.1549,0.0925,-0.0325
20.44,0.5825,-0.8176,9.7227,-0.1231,0.0552,-0.0047
20.46,0.3008,-0.9272,9.525,-0.0913,0.0476,-0.0128
20.48,0.2661,-0.8842,9.5238,-0.0717,-0.0189,-0.0409
20.5,0.516,-0.8354,9.4782,-0.0555,-0.006,-0.0214
20.52,0.4289,-1.1408,9.5241,-0.0114,0.0322,0.0055
20.54,0.6055,-1.0187,9.3908,-0.0341,-0.0328,0.0075
20.56,0.239,-0.9261,9.4863,-0.0408,-0.0125,-0.0054
20.58,0.4669,-0.9762,9.4032,0.0019,0.0075,0.0237
20.6,0.5004,-0.8492,9.574,0.0027,-0.0419,-0.0186
20.62,0.7592,-0.8382,9.9077,0.0611,0.0177,0.0304
20.64,0.3269,-0.676,9.3979,0.0169,-0.0114,-0.011
20.66,0.6145,-0.8157,9.5335,0.0852,0.0054,-0.0347
20.68,0.4736,-1.3094,9.1492,0.048,-0.0228,-0.0483
20.7,0.4544,-0.6155,9.4805,0.0815,0.0798,-0.0243
20.72,0.3891,-1.099,9.1906,0.1082,0.0805,-0.0172
20.74,0.4774,-0.8047,9.2648,0.0359,0.0437,0.0533
20.76,0.6101,-0.9096,9.4038,-0.0063,-0.0168,0.1027
20.78,0.2402,-0.8765,8.9153,-0.168,-0.1318,0.1007
20.8,0.4577,-0.898,9.2206,-0.2404,-0.1466,0.2084
20.82,0.2661,-1.0037,9.1224,-0.3672,-0.1668,0.2
20.84,-0.1626,-0.9032,9.0452,-0.4341,-0.0944,0.223
20.86,-0.3848,-1.1592,9.6626,-0.4469,0.0351,0.1484
20.88,-0.0469,-1.4633,10.192,-0.3153,0.0911,0.1007
20.9,0.1981,-1.1211,10.7623,-0.1086,0.2292,0.057
20.92,0.6666,-1.3682,10.8883,0.0995,0.2319,-0.0592
20.94,1.3788,-1.1684,10.4387,0.2663,0.1024,-0.1344
20.96,1.1604,-1.1224,9.8581,0.4056,-0.0254,-0.1817
20.98,0.9011,-0.9249,9.2339,0.3846,-0.1096,-0.2263
21.0,0.7021,-1.0375,9.2675,0.3208,-0.1969,-0.2029
21.02,0.6563,-0.7845,9.3605,0.2765,-0.1583,-0.1733
21.04,0.1252,-1.0452,9.3876,0.057,-0.0694,-0.1378
21.06,0.7689,-1.0201,9.0265,-0.0439,-0.0204,-0.1118
21.08,0.8504,-0.5952,9.7359,-0.0905,0.0707,0.0134
21.1,0.8427,-0.52,9.4631,-0.0744,0.0962,-0.0034
21.12,0.3967,-0.9295,9.5009,-0.1064,0.0598,-0.0058
21.14,0.3022,-0.6847,9.8149,-0.0706,0.0296,0.0187
21.16,0.7794,-0.7666,10.0509,-0.04,0.0057,0.0333
21.18,0.8757,-0.9407,9.8211,-0.0423,0.0046,0.0071
21.2,0.5915,-1.1267,9.7881,-0.0263,-0.0264,-0.0026
21.22,0.695,-1.0074,9.8654,-0.0058,-0.0088,0.0014
21.24,0.6565,-0.7573,9.9381,-0.0154,0.0153,-0.0146
21.26,0.7746,-0.8514,9.9746,0.0217,0.0129,-0.018
21.28,0.9193,-0.6888,9.7754,-0.0187,-0.0206,-0.0112
21.3,0.9368,-0.819,9.9376,0.0086,0.012,-0.0074
21.32,0.5166,-0.8074,9.7669,-0.0398,-0.0005,0.0297
21.34,0.5728,-0.7169,10.0125,0.0291,-0.0214,0.0402
21.36,0.7177,-0.6509,9.906,-0.0083,0.015,0.0252
21.38,0.6807,-0.8175,9.8199,0.0262,-0.0446,0.0281
21.4,0.8185,-0.8325,9.9431,0.1025,0.03,0.0699
21.42,0.9149,-0.8148,9.7211,0.0624,0.0192,0.0138
21.44,0.8283,-1.0409,9.586,0.1148,0.0493,0.0185
21.46,0.8863,-0.8175,9.7327,0.1272,0.1016,-0.0025
21.48,0.9516,-0.8447,9.6215,0.0763,0.0637,-0.0279
21.5,0.8202,-0.941,9.6506,-0.0216,0.0136,-0.055
21.52,0.6624,-0.8834,9.4691,-0.1853,-0.1127,-0.138
21.54,0.5105,-0.6171,9.5455,-0.2702,-0.1681,-0.1725
21.56,0.3477,-0.9026,9.6312,-0.3592,-0.1554,-0.2071
21.58,0.3037,-0.533,9.8905,-0.4053,-0.0809,-0.2307
21.6,0.206,-0.2373,10.5453,-0.3294,0.0945,-0.1488
21.62,0.2475,-0.6565,10.5244,-0.238,0.1462,-0.0879
21.64,0.8197,-0.4841,11.4065,-0.064,0.251,-0.0136
21.66,0.9673,-0.6347,10.9796,0.1871,0.2386,0.0565
21.68,1.1317,-0.7041,10.3638,0.3159,0.0883,0.1547
21.7,1.1554,-0.8902,9.5913,0.413,-0.017,0.1687
21.72,1.0528,-1.0093,9.6319,0.433,-0.1403,0.223
21.74,0.8422,-1.0246,9.037,0.307,-0.1928,0.186
21.76,0.8645,-1.0138,9.4174,0.2059,-0.1722,0.1551
21.78,0.9113,-0.8484,9.313,0.0781,-0.0415,0.1082
21.8,0.7954,-0.7422,9.5846,-0.0047,0.0279,0.0722
21.82,0.7538,-0.8632,9.35,-0.0416,0.0318,0.043
21.84,0.3777,-1.2238,9.3309,-0.1265,0.0719,-0.0162
21.86,0.6782,-0.7978,9.7353,-0.1105,0.075,-0.0301
21.88,0.4291,-1.0111,9.8825,-0.0702,0.0529,-0.009
21.9,0.4407,-0.9587,9.9042,-0.0174,0.0508,-0.0112
21.92,0.4126,-0.9932,9.5453,-0.0759,-0.0105,-0.0456
21.94,0.1902,-1.2581,9.3907,-0.0331,-0.0434,-0.0023
21.96,0.3985,-0.9452,9.6036,-0.0181,-0.0235,-0.0325
21.98,0.4883,-0.8382,9.9823,-0.0153,-0.0192,-0.0059
22.0,0.5223,-1.0449,9.5427,-0.024,-0.0228,-0.0197
22.02,0.3761,-0.9177,9.5284,0.0118,0.0003,0.0075
22.04,0.4925,-1.0559,9.4,0.0332,-0.0167,-0.0338
22.06,0.4424,-0.9317,9.4993,0.0157,0.032,-0.0215
22.08,0.698,-0.9298,9.6407,0.1164,0.0381,-0.0261
22.1,0.7071,-0.8748,9.2126,0.0986,0.0549,-0.0328
22.12,0.6438,-0.6219,9.3585,0.1088,0.1004,0.0006
22.14,0.3705,-0.7622,9.2669,0.024,0.0754,0.0105
22.16,0.5898,-0.6033,9.3393,-0.0214,0.04,0.0763
22.18,0.3737,-0.9086,9.0947,-0.1672,-0.095,0.1441
22.2,0.1406,-1.2291,8.89,-0.2752,-0.1792,0.1553
22.22,0.216,-1.0224,9.2253,-0.3882,-0.1596,0.2117
22.24,0.0106,-1.3183,9.5634,-0.4168,-0.0798,0.2297
22.26,-0.4033,-1.1465,9.4124,-0.4523,-0.0128,0.1869
22.28,-0.3674,-1.4819,10.1157,-0.3362,0.1711,0.0983
22.3,0.7204,-1.0828,11.0072,-0.1195,0.241,0.0467
22.32,0.4109,-1.3257,10.7329,0.0805,0.2194,-0.0274
22.34,1.0354,-1.0466,10.4293,0.3249,0.1425,-0.1594
22.36,1.4114,-0.8642,9.9957,0.4344,0.0069,-0.1541
22.38,1.0805,-0.789,9.2562,0.4241,-0.1226,-0.2004
22.4,0.9916,-0.8865,9.341,0.3855,-0.1144,-0.197
22.42,0.828,-0.8543,9.303,0.2672,-0.1192,-0.1765
22.44,0.8813,-0.6691,9.5686,0.1543,-0.0634,-0.1371
22.46,0.4898,-0.9627,9.5229,-0.0021,0.012,-0.0846
22.48,0.5067,-0.8483,9.4641,-0.1118,0.0376,-0.0631
22.5,0.7228,-1.0118,9.308,-0.1251,0.0667,0.0501
22.52,0.5354,-0.6327,9.6269,-0.1404,0.0889,0.0296
22.54,0.5216,-0.6112,9.8661,-0.0904,0.0468,0.0057
22.56,0.5261,-0.714,9.7087,-0.0584,0.0038,-0.004
22.58,0.7301,-0.7811,9.8524,-0.0572,0.0086,0.0081
22.6,0.7351,-0.8488,9.8132,-0.0192,-0.0093,-0.0092
22.62,0.6414,-0.9539,9.8381,0.0102,0.0255,-0.0277
22.64,0.5874,-0.9151,9.7242,-0.0187,-0.0177,0.0106
22.66,1.0191,-0.6196,10.0274,0.0544,-0.0114,0.0286
22.68,0.8826,-0.7218,10.0913,0.0027,0.021,0.0409
22.7,0.6821,-0.7538,9.9395,-0.0425,0.004,-0.0071
22.72,0.7573,-0.998,9.9997,0.0205,-0.0227,0.0489
22.74,0.7881,-0.7525,9.8732,0.0489,-0.0212,0.0607
22.76,0.8198,-0.8336,10.1664,0.0444,-0.0009,0.0133
22.78,0.9408,-0.7598,10.1725,0.1043,0.0733,0.0592
22.8,1.1607,-0.7376,9.8997,0.1184,0.0853,0.0478
22.82,1.0645,-0.7068,9.9132,0.1546,0.0809,0.0406
22.84,0.9491,-0.7909,9.9123,0.1724,0.1247,0.0091
22.86,0.8084,-1.1981,9.5983,0.0436,0.077,-0.0639
22.88,0.8129,-0.933,9.5863,-0.0184,0.0134,-0.0903
22.9,0.621,-0.7862,9.5516,-0.1594,-0.0966,-0.1601
22.92,0.13,-1.1633,9.1214,-0.3715,-0.1883,-0.208
22.94,-0.1507,-0.7428,9.1951,-0.4964,-0.2786,-0.2676
22.96,0.1633,-0.5046,9.4526,-0.525,-0.1722,-0.2509
22.98,-0.3616,-0.6526,10.0227,-0.4992,0.01,-0.2279
23.0,0.0773,-0.5232,11.1648,-0.3369,0.1953,-0.1171
23.02,0.2516,-0.6666,11.5355,-0.1564,0.2831,-0.0731
23.04,0.9058,-0.6405,11.5694,0.1242,0.306,0.06
23.06,1.6406,-0.4702,10.8053,0.3151,0.1756,0.1511
23.08,1.4796,-0.6883,9.9571,0.4998,0.0556,0.2233
23.1,1.2249,-0.5983,9.2795,0.4936,-0.156,0.2212
23.12,1.3434,-0.6778,9.1506,0.4548,-0.1895,0.2397
23.14,0.9007,-0.9095,9.1832,0.3133,-0.2007,0.2357
23.16,0.5785,-1.0031,9.3362,0.1161,-0.0979,0.1633
23.18,0.6155,-0.9522,9.4481,0.0118,-0.0275,0.0857
23.2,0.5255,-1.0618,9.3798,-0.0922,0.0644,0.0243
23.22,0.1805,-1.0465,9.3993,-0.1947,0.0659,-0.0201
23.24,0.6193,-0.8597,9.8458,-0.1194,0.1128,-0.0206
23.26,0.1556,-1.0225,9.5801,-0.126,0.017,-0.0631
23.28,0.2917,-0.8958,9.49,-0.082,0.002,0.0001
23.3,0.3196,-0.9014,9.7019,-0.0645,-0.012,-0.0493
23.32,0.8758,-1.0356,9.8347,-0.0061,0.0061,0.0047
23.34,0.5158,-1.3188,9.5172,-0.0601,-0.0003,-0.03
23.36,0.3734,-0.7965,9.6021,0.0127,-0.0112,0.0036
23.38,0.5491,-1.0851,9.7944,-0.0245,0.0313,0.0177
23.4,0.2998,-0.9439,9.3944,-0.0425,-0.0018,-0.0097
23.42,0.5049,-0.9762,9.6079,-0.0183,0.0257,-0.0113
23.44,0.2886,-0.8622,9.5814,0.018,-0.015,-0.037
23.46,0.3295,-1.0583,9.4693,0.0658,-0.0038,-0.0287
23.48,0.6519,-1.1384,9.7608,0.0686,0.0907,-0.0608
23.5,0.7095,-0.8398,9.6711,0.1459,0.0716,-0.0463
23.52,0.0533,-0.9485,9.0151,0.0734,0.0393,-0.0172
23.54,0.3097,-0.8387,9.0941,0.1033,0.0883,-0.01
23.56,0.5769,-1.037,9.2053,0.0421,0.032,0.0857
23.58,0.5414,-0.8809,8.8592,-0.0965,-0.034,0.1291
23.6,0.3762,-0.8446,8.8059,-0.2351,-0.1399,0.1932
23.62,0.296,-1.2026,9.095,-0.3955,-0.1972,0.2642
23.64,-0.2974,-1.002,9.0049,-0.5533,-0.2162,0.2619
23.66,-0.7694,-1.4187,9.0619,-0.5708,-0.1197,0.2258
23.68,-0.5436,-1.3133,9.7793,-0.5096,0.0224,0.1874
23.7,-0.2885,-1.3601,10.765,-0.3181,0.2175,0.13
23.72,0.5985,-1.2649,11.6377,-0.0676,0.335,0.0359
23.74,0.7855,-1.5295,10.7274,0.1733,0.2683,-0.1135
23.76,1.5038,-1.1039,10.5221,0.3704,0.1249,-0.1794
23.78,1.4596,-1.4751,9.7338,0.5376,-0.0509,-0.2268
23.8,1.314,-0.8044,9.4733,0.5523,-0.1905,-0.2387
23.82,0.6829,-0.7998,8.9957,0.4064,-0.2303,-0.2692
23.84,0.968,-0.915,9.0894,0.2364,-0.1804,-0.2215
23.86,0.4638,-0.7563,9.1279,0.0809,-0.0711,-0.1649
23.88,0.3544,-0.6914,9.225,-0.0465,0.019,-0.0579
23.9,0.305,-0.6959,9.5407,-0.0813,0.0768,-0.0019
23.92,0.6096,-0.9372,9.4337,-0.1888,0.0923,0.0219
23.94,0.6724,-0.6046,9.6571,-0.121,0.0576,0.0634
23.96,0.4795,-0.7411,9.6893,-0.1076,0.0391,0.0536
23.98,0.8176,-0.6292,9.6457,-0.0448,-0.0055,0.0399
24.0,0.6664,-0.6829,10.1362,-0.0105,-0.0079,0.0035
24.02,0.8027,-1.1507,9.8807,-0.0315,-0.056,0.0151
24.04,0.3846,-0.4969,9.8498,0.0146,0.0093,0.003
24.06,0.8605,-0.7648,9.9256,-0.0045,-0.0493,0.0249
24.08,0.8349,-0.6359,10.0553,0.04,0.0389,0.0091
24.1,0.7461,-0.8387,10.0099,-0.0505,-0.0123,0.0229
24.12,0.5761,-0.7876,10.0344,-0.0152,0.0231,-0.0148
24.14,0.8917,-0.7645,10.0499,0.0246,0.0181,-0.0387
24.16,0.6933,-0.749,9.7228,-0.0418,-0.0323,-0.0001
24.18,0.7302,-0.6881,9.7161,-0.0426,-0.0126,0.0254
24.2,0.8119,-0.9571,9.969,0.0051,0.0063,0.0335
24.22,0.9821,-0.4968,9.9809,0.0396,-0.0097,0.0529
24.24,0.7355,-0.8436,10.0872,0.0332,-0.0242,-0.0064
24.26,0.9172,-0.6341,9.9965,0.0213,0.0293,0.0203
24.28,0.8557,-0.6333,9.9669,0.0686,0.038,0.064
24.3,0.9306,-0.8726,9.6635,0.0947,0.0884,0.0235
24.32,0.3759,-1.0314,9.7066,0.0586,0.032,0.0059
24.34,0.882,-1.1339,9.4676,0.0574,0.0367,-0.0336
24.36,0.7639,-1.1207,9.7425,0.0433,0.0439,-0.0571
24.38,0.5411,-1.0176,9.2937,-0.1135,-0.0822,-0.0944
24.4,0.7875,-0.5978,9.5341,-0.2297,-0.1002,-0.1706
24.42,0.3847,-0.6753,9.1939,-0.3483,-0.1781,-0.2182
24.44,-0.246,-0.5643,9.509,-0.4397,-0.1583,-0.231
24.46,0.0192,-0.2513,10.0658,-0.4375,-0.0187,-0.1864
24.48,0.0872,-0.8762,10.5742,-0.3689,0.1206,-0.1655
24.5,-0.0169,-0.7347,11.1053,-0.1863,0.2481,-0.0317
24.52,0.4485,-0.3105,11.3797,0.0345,0.257,-0.0261
24.54,0.6481,-0.788,10.7596,0.2068,0.1988,0.096
24.56,1.4521,-0.5708,10.3073,0.37,0.1017,0.1706
24.58,1.2916,-0.8705,9.4111,0.4585,-0.1001,0.2111
24.6,1.0056,-0.8609,9.3072,0.4198,-0.1657,0.2179
24.62,0.9178,-0.9238,9.1719,0.3189,-0.1586,0.1858
24.64,0.8114,-1.021,9.3435,0.1721,-0.1136,0.1585
24.66,0.4296,-1.1979,9.2228,0.0123,-0.0209,0.1174
24.68,0.5283,-0.9817,9.3761,-0.0452,0.0386,0.051
24.7,0.4881,-1.0397,9.3826,-0.1473,0.0644,-0.005
24.72,0.3648,-0.9168,9.4134,-0.1301,0.057,-0.0232
24.74,0.4998,-1.0362,9.58,-0.1347,0.0636,-0.0367
24.76,0.2693,-1.0043,9.6195,-0.0747,0.0441,-0.0531
24.78,0.263,-0.8895,9.6412,-0.11,0.0111,-0.0456
24.8,0.4985,-0.9741,9.6927,0.0039,0.0022,-0.0356
24.82,0.4523,-0.9814,9.5964,-0.0318,-0.0571,-0.0215
24.84,0.363,-1.0524,9.4242,-0.0174,0.0207,-0.012
24.86,0.4819,-1.1181,9.6365,-0.0305,0.0167,-0.0089
24.88,0.2137,-0.9739,9.676,-0.0097,0.008,0.0213
24.9,0.5107,-1.0586,9.3422,-0.0066,0.0302,0.0068
24.92,0.3898,-1.0425,9.2591,-0.0107,0.0016,0.0147
24.94,0.5109,-1.1022,9.8235,0.0012,0.0268,0.0081
24.96,0.5194,-1.0489,9.7649,-0.0174,-0.0004,0.0322
24.98,0.2803,-0.7731,9.8093,-0.0129,-0.0127,-0.032
25.0,0.419,-1.1348,9.423,-0.0312,-0.022,-0.0641
25.02,0.6663,-0.9269,9.4801,0.0563,-0.043,-0.0525
25.04,0.7023,-0.984,9.7434,0.0543,0.0233,-0.0522
25.06,0.3764,-1.052,9.3804,0.1184,0.0403,-0.0554
25.08,0.7759,-0.9667,9.4412,0.111,0.0757,-0.0422
25.1,0.4505,-1.0434,9.2659,0.149,0.0521,0.0589
25.12,0.5386,-0.6034,9.0492,0.0864,0.0572,0.0679
25.14,0.445,-0.9185,9.1706,-0.0716,-0.0092,0.1129
25.16,0.1448,-0.9205,9.3375,-0.1988,-0.0879,0.1979
25.18,0.2892,-0.8441,8.9024,-0.3656,-0.1815,0.2411
25.2,-0.1979,-1.05,9.1122,-0.492,-0.2218,0.2182
25.22,-0.2983,-0.9475,9.2141,-0.52,-0.122,0.2807
25.24,-0.4699,-1.3024,9.5931,-0.508,0.0373,0.2005
25.26,0.145,-0.9677,10.8316,-0.3007,0.2248,0.1653
25.28,0.9244,-1.2133,11.959,-0.054,0.2992,0.0715
25.3,0.655,-1.4119,11.124,0.1772,0.2679,-0.1075
25.32,1.6948,-0.9771,10.9824,0.3614,0.15,-0.2174
25.34,1.2839,-1.3097,9.6771,0.5,-0.0157,-0.2218
25.36,1.4732,-0.7573,9.2489,0.5011,-0.1305,-0.2242
25.38,1.0084,-0.7914,9.1881,0.4272,-0.1857,-0.2423
25.4,0.6015,-0.6376,9.2061,0.2719,-0.2133,-0.215
25.42,0.5142,-0.778,9.2943,0.1475,-0.0796,-0.1839
25.44,0.6412,-0.5444,9.4269,0.0162,0.0053,-0.0491
25.46,0.4821,-0.6637,9.698,-0.0521,0.0923,-0.0185
25.48,0.4845,-0.5984,9.6702,-0.1362,0.1186,-0.0106
25.5,0.6008,-0.6259,9.944,-0.1444,0.1014,0.0564
25.52,0.3335,-0.9294,9.9544,-0.0947,0.0357,0.0333
25.54,0.7483,-0.4473,10.0398,-0.0706,-0.0056,0.0387
25.56,0.9995,-0.9107,10.0873,-0.0379,0.01,0.0543
25.58,0.5932,-0.7273,10.0087,-0.0116,-0.0024,0.0124
25.6,0.8931,-0.863,10.0504,0.0033,0.0285,0.0311
25.62,0.7747,-0.7611,10.0942,0.0011,-0.0203,-0.0098
25.64,0.7675,-0.4736,10.1205,-0.0018,0.0346,-0.0087
25.66,0.8294,-0.9276,10.1082,0.004,0.0318,-0.001
25.68,0.9028,-0.8235,9.7771,-0.0367,-0.0069,-0.0244
25.7,0.7014,-0.9231,10.0649,-0.0502,0.0421,0.0031
25.72,0.9215,-0.7724,10.0616,-0.0249,0.0311,0.0218
25.74,0.8615,-0.5024,10.2802,0.0492,0.0745,0.0398
25.76,1.1026,-0.9598,10.0218,-0.0133,-0.0001,0.0027
25.78,0.8063,-0.5771,10.1434,-0.0017,0.0023,0.0225
25.8,0.6012,-0.7509,9.8864,0.0328,-0.0126,0.0281
25.82,0.9545,-0.6612,10.138,0.0642,0.0557,0.0561
25.84,0.806,-0.863,9.7053,0.0706,0.0298,0.0271
25.86,0.8508,-0.9595,9.8568,0.1073,0.039,0.0673
25.88,1.0045,-1.2269,9.6596,0.1515,0.0709,0.012
25.9,1.0451,-0.9093,9.7174,0.1183,0.123,-0.0055
25.92,0.7613,-0.9012,9.5122,0.0695,0.0825,-0.0384
25.94,0.6414,-1.0255,9.6193,-0.0389,0.0386,-0.0992
25.96,0.692,-1.2042,9.3493,-0.2045,-0.0721,-0.2076
25.98,0.6696,-1.0442,9.6445,-0.3185,-0.2103,-0.1989
26.0,0.1234,-0.6664,9.4042,-0.5162,-0.2083,-0.2967
26.02,-0.1264,-0.6326,9.5678,-0.5108,-0.1265,-0.2603
26.04,-0.5221,-0.8648,9.9258,-0.466,0.031,-0.2104
26.06,-0.5182,-0.6599,11.137,-0.3273,0.2356,-0.1483
26.08,0.3169,-0.5375,11.6112,-0.101,0.3032,-0.0761
26.1,0.6941,-0.7081,11.2119,0.1869,0.3128,0.0951
26.12,1.454,-0.4691,10.802,0.3948,0.1765,0.1375
26.14,1.5851,-0.8792,9.6847,0.483,-0.0195,0.237
26.16,1.2859,-0.7437,9.1768,0.5008,-0.1735,0.2435
26.18,0.9285,-0.9649,9.1091,0.4529,-0.2486,0.2691
26.2,0.7558,-1.0475,9.186,0.2749,-0.1556,0.2049
26.22,0.7468,-1.2184,9.2823,0.1401,-0.1006,0.1657
26.24,0.5016,-1.0032,9.3056,-0.0012,0.0383,0.0923
26.26,0.4035,-0.8434,9.192,-0.1009,0.0738,0.0274
26.28,0.1128,-0.949,9.1407,-0.1447,0.1291,-0.0716
26.3,0.082,-0.9946,9.259,-0.1928,0.0614,-0.0693
26.32,0.1774,-1.0462,9.686,-0.1172,0.0701,-0.0489
26.34,0.1992,-0.7931,9.468,-0.0806,-0.0181,-0.0633
26.36,0.4266,-0.9219,9.6919,-0.0557,-0.0023,-0.049
26.38,0.5828,-1.067,9.7143,-0.0363,-0.0187,-0.0134
26.4,0.5187,-1.0117,9.4358,-0.0224,-0.0304,-0.0156
26.42,0.4676,-1.1066,9.4045,-0.0167,-0.0157,-0.0087
26.44,0.2537,-1.0567,9.5936,0.0021,0.0019,-0.0079
26.46,0.4072,-1.2282,9.6554,-0.0248,0.0168,0.0164
26.48,0.3352,-0.8729,9.5396,0.0033,-0.0167,0.0141
26.5,0.5945,-0.9388,9.669,0.0218,0.0355,0.0349
26.52,0.1858,-1.255,9.5708,-0.0042,-0.0192,0.0183
26.54,0.5312,-1.1025,9.8636,0.0144,-0.0129,-0.0478
26.56,0.3358,-0.8936,9.7616,0.0055,0.0084,-0.0561
26.58,0.6274,-1.0129,9.7319,0.0582,-0.0184,-0.0483
26.6,0.6058,-1.2576,8.9762,0.0337,0.0136,-0.0561
26.62,0.2005,-0.9148,9.3631,0.1456,0.0586,-0.0375
26.64,0.8557,-0.8511,9.5093,0.1265,0.0968,0.0181
26.66,0.5358,-0.7109,9.433,0.1209,0.0958,0.0032
26.68,0.3418,-1.0549,9.1635,0.0476,0.0484,0.0534
26.7,0.5238,-0.9267,9.404,-0.0966,-0.0355,0.1495
26.72,0.5692,-1.0339,9.2694,-0.2227,-0.1215,0.2089
26.74,0.403,-0.9393,9.3488,-0.3645,-0.2124,0.2474
26.76,-0.2768,-0.7922,9.2739,-0.558,-0.274,0.2659
26.78,-0.397,-1.2367,9.641,-0.5672,-0.0735,0.2361
26.8,-0.8706,-1.4302,9.6854,-0.5043,0.062,0.1963
26.82,-0.2176,-1.3959,11.2396,-0.3359,0.2541,0.1023
26.84,0.6403,-0.8993,12.0036,-0.0219,0.3451,0.0451
26.86,1.091,-1.0742,11.4282,0.2557,0.3038,-0.1198
26.88,1.6652,-0.9996,10.7712,0.4374,0.1553,-0.215
26.9,1.594,-0.8418,9.8784,0.5754,-0.0689,-0.2421
26.92,1.5456,-0.9465,9.3471,0.5539,-0.2139,-0.2771
26.94,0.9252,-0.7319,9.2452,0.395,-0.2406,-0.2707
26.96,1.0016,-0.7016,9.4087,0.2634,-0.1674,-0.1948
26.98,0.3575,-0.8174,9.1429,0.093,-0.067,-0.1786
27.0,0.5953,-0.9333,9.4103,-0.0593,0.0068,-0.0946
27.02,0.8282,-0.5442,9.936,-0.087,0.1395,0.0276
27.04,0.5354,-0.5442,9.884,-0.1163,0.1192,0.031
27.06,0.2154,-0.8467,9.8878,-0.1348,0.0714,0.0354
27.08,0.3489,-0.9869,10.0391,-0.1034,0.0157,0.0697
27.1,0.2897,-1.1139,9.6339,-0.0994,-0.0142,0.0169
27.12,0.7766,-0.4692,10.5646,-0.0264,0.0276,0.0726
27.14,0.3524,-1.0405,9.7103,-0.0164,-0.0264,0.0435
27.16,0.7928,-0.8868,10.143,0.0215,0.03,0.0152
27.18,0.4593,-1.0624,9.5152,-0.011,-0.0306,0.0049
27.2,0.8357,-0.9542,10.0324,0.0373,0.0207,-0.0135
27.22,0.661,-0.9002,9.9392,-0.0366,0.0018,0.0237
27.24,0.8594,-0.6608,9.9749,-0.0127,-0.0029,-0.0071
27.26,0.9107,-0.64,9.9346,0.0083,-0.0025,0.0024
27.28,1.0901,-0.8667,10.0665,0.0217,0.0301,0.0193
27.3,0.682,-1.0348,9.9957,0.0402,-0.0315,0.002
27.32,0.9665,-0.8487,10.2013,0.0287,0.0244,0.0385
27.34,0.7155,-0.7423,9.7882,0.0502,-0.023,0.0576
27.36,0.7814,-0.8908,9.7958,0.0545,0.0574,0.0488
27.38,1.0514,-1.0229,9.9328,0.1453,0.0503,0.0532
27.4,0.6495,-1.1069,9.6588,0.1186,0.1089,0.0008
27.42,0.5275,-1.0589,9.5593,0.1201,0.0807,-0.0244
27.44,0.6635,-1.0293,9.4522,0.0672,0.0589,-0.0709
27.46,0.254,-1.2852,9.4291,-0.1112,-0.026,-0.1302
27.48,0.4901,-1.0364,8.9132,-0.2524,-0.1428,-0.2081
27.5,-0.188,-0.8736,8.9486,-0.412,-0.2305,-0.2078
27.52,0.1093,-0.8953,9.2823,-0.4639,-0.1883,-0.2451
27.54,-0.5267,-0.8329,9.409,-0.4848,-0.0601,-0.2575
27.56,-0.7639,-0.8188,10.1897,-0.3938,0.124,-0.1671
27.58,-0.1844,-0.4397,11.255,-0.2673,0.2219,-0.0885
27.6,0.6387,-0.6839,11.4617,0.0335,0.2727,0.0095
27.62,1.2262,-0.4723,11.2151,0.2172,0.2542,0.115
27.64,1.2549,-0.6308,10.3841,0.4098,0.1119,0.2108
27.66,1.3979,-0.641,9.5666,0.466,-0.0751,0.2285
27.68,1.0512,-0.9052,9.3523,0.5126,-0.1638,0.2693
27.7,0.8569,-0.9134,9.1161,0.3828,-0.2279,0.1993
27.72,0.4225,-0.8087,9.2319,0.2215,-0.1266,0.1713
27.74,0.7198,-1.0074,9.2164,0.071,-0.0281,0.1318
27.76,0.3863,-1.2092,9.2205,-0.0708,0.0577,0.0906
27.78,0.3311,-1.0767,9.281,-0.1404,0.094,0.0033
27.8,0.2508,-1.0481,9.3081,-0.1866,0.0688,-0.0059
27.82,0.4887,-0.8791,9.6827,-0.1163,0.096,-0.0123
27.84,0.4495,-1.157,9.592,-0.0776,-0.0134,-0.0185
27.86,0.2665,-1.0609,9.712,-0.1345,-0.041,-0.0342
27.88,0.0685,-0.812,9.3872,-0.0947,-0.0535,-0.0204
27.9,0.4983,-1.0124,9.6169,-0.0136,-0.0355,-0.0356
27.92,0.0951,-0.9059,9.4562,-0.0234,-0.0189,-0.0112
27.94,0.1268,-1.1879,9.4482,0.0053,-0.0155,0.0018
27.96,0.5764,-1.0535,9.8697,0.0144,-0.0077,-0.0118
27.98,0.2915,-1.1749,9.4335,0.0033,-0.0299,0.0114
28.0,0.5802,-0.7593,9.8096,0.0137,0.0318,-0.0018
28.02,0.6947,-1.0216,9.6083,0.0259,-0.0027,-0.0028
28.04,0.3657,-0.9984,9.6614,-0.0014,0.0259,-0.0152
28.06,0.883,-0.6314,9.7437,0.0198,0.0473,-0.0112
28.08,0.52,-1.2009,9.6187,-0.0144,0.0063,0.0306
28.1,0.1961,-1.0219,9.6038,-0.0284,-0.0364,0.0125
28.12,0.5952,-0.8047,9.9666,0.0085,-0.0145,0.0202
28.14,0.6214,-0.8017,9.9173,0.0144,-0.0322,-0.034
28.16,1.0617,-0.9485,9.9539,0.0412,-0.0112,-0.0012
28.18,0.7116,-0.9719,9.698,0.0453,-0.001,-0.0593
28.2,1.0411,-0.7844,9.9336,0.1569,0.0937,-0.0048
28.22,0.7569,-0.6071,9.8213,0.1501,0.0647,-0.037
28.24,0.9804,-0.9181,9.6587,0.1329,0.116,0.0175
28.26,0.7726,-0.603,9.4726,0.0746,0.0639,-0.0018
28.28,0.6396,-0.9961,9.4709,0.0266,0.0229,0.0952
28.3,0.6656,-0.7984,9.4197,-0.1168,-0.0783,0.1792
28.32,0.4682,-1.114,9.355,-0.3029,-0.1964,0.2333
28.34,0.627,-0.6732,9.6049,-0.4296,-0.1937,0.2778
28.36,-0.1643,-0.9053,9.2243,-0.5803,-0.2218,0.2756
28.38,-0.4069,-0.7992,9.933,-0.583,-0.0215,0.2696
28.4,-0.197,-1.339,10.8505,-0.438,0.1709,0.1515
28.42,0.2417,-1.2456,11.68,-0.2124,0.261,0.0576
28.44,1.0857,-1.391,11.7386,0.0469,0.3156,-0.0295
28.46,1.5578,-0.9793,11.2973,0.3424,0.1994,-0.1574
28.48,1.5782,-0.9878,10.3901,0.4584,0.0413,-0.2133
28.5,1.7047,-0.9793,9.7283,0.552,-0.0724,-0.2563
28.52,1.6101,-0.9276,9.6044,0.4948,-0.2189,-0.2658
28.54,1.2363,-0.9115,9.3724,0.3263,-0.1826,-0.2517
28.56,0.4832,-0.5265,9.447,0.1785,-0.1008,-0.2186
28.58,0.9615,-0.7407,9.6997,0.0822,0.0071,-0.1023
28.6,0.6858,-0.7438,9.3773,-0.0579,0.0598,-0.067
28.62,0.5683,-0.79,9.6149,-0.1632,0.1134,-0.0371
28.64,0.4963,-0.8492,9.5899,-0.1764,0.0739,0.015
28.66,0.4894,-0.723,9.7897,-0.148,0.0463,0.039
28.68,0.4593,-0.7171,9.9628,-0.0764,0.0194,0.0485
28.7,0.3767,-0.943,10.0158,-0.056,-0.0121,0.0081
28.72,0.5008,-0.7762,10.2959,-0.0028,-0.037,0.0198
28.74,0.9032,-0.5638,9.8954,0.002,-0.0035,0.0135
28.76,0.4185,-0.5755,9.6813,-0.0126,0.0202,-0.017
28.78,0.9217,-0.8614,9.7953,-0.0217,0.0381,0.0011
28.8,0.4448,-0.8467,9.6455,-0.068,-0.0255,-0.0219
28.82,0.3369,-1.1453,9.7707,0.0115,0.0396,0.0022
28.84,0.4822,-0.8691,9.815,0.033,0.0291,0.0399
28.86,0.7061,-1.1192,9.6901,0.0631,-0.0249,0.0302
28.88,0.8175,-0.7727,9.8766,0.0801,0.0412,0.0159
28.9,0.8964,-0.9338,9.8448,0.1494,0.0551,0.0609
28.92,0.5856,-1.163,9.5977,0.1264,0.0835,0.0151
28.94,0.6823,-1.0133,9.6857,0.1131,0.078,0.0043
28.96,0.4576,-0.791,9.47,0.022,0.0519,-0.0675
28.98,0.7962,-0.7293,9.8668,-0.1162,-0.0303,-0.0999
29.0,0.171,-0.8292,9.0539,-0.3035,-0.1676,-0.2102
29.02,0.1601,-0.9749,9.2589,-0.399,-0.1872,-0.1974
29.04,-0.1694,-0.5953,9.6203,-0.4677,-0.126,-0.2375
29.06,-0.6938,-0.6579,9.5737,-0.486,-0.0175,-0.2216
29.08,-0.3228,-0.817,10.3612,-0.3795,0.0948,-0.1764
29.1,0.8419,-0.1002,12.063,-0.0595,0.2918,-0.075
29.12,0.7404,-0.8046,11.011,0.0799,0.2873,-0.0025
29.14,1.8584,-0.1564,11.8499,0.3794,0.229,0.1433
29.16,0.9883,-0.7001,9.648,0.4116,0.0699,0.2205
29.18,0.3508,-1.4594,8.5275,0.4104,-0.151,0.2396
29.2,0.795,-0.9097,9.0512,0.4483,-0.1664,0.2125
29.22,1.027,-0.6737,9.6279,0.3789,-0.1472,0.2288
29.24,1.1444,-0.9303,9.9858,0.2482,-0.0815,0.1934
29.26,0.8281,-0.912,9.6823,0.0622,0.0168,0.11
29.28,0.0123,-1.195,8.771,-0.103,0.0291,0.0616
29.3,0.0945,-1.0275,9.3747,-0.1231,0.0606,-0.0183
29.32,0.2664,-0.9575,9.3376,-0.1476,0.0723,0.0023
29.34,0.9155,-0.9607,10.2365,-0.0669,0.1081,-0.0101
29.36,0.6189,-0.5491,10.1499,-0.0503,0.0652,-0.0193
29.38,-0.0372,-1.3103,8.9757,-0.1597,-0.0532,-0.0027
29.4,0.3488,-1.0306,9.6999,-0.0151,-0.0317,-0.0144
29.42,0.1094,-0.8606,9.347,-0.0458,-0.0039,-0.0498
29.44,-0.0373,-1.3313,9.2361,-0.0658,-0.0733,-0.0062
29.46,0.1454,-1.0867,9.0948,-0.0273,-0.064,-0.0271
29.48,0.9165,-0.4697,10.2344,0.0785,0.0257,-0.0155
29.5,0.5137,-1.0408,9.4712,0.0246,0.0279,-0.0227
29.52,0.3829,-1.1822,9.1786,0.0609,0.0168,-0.0461
29.54,0.5772,-0.9486,9.2728,0.1028,0.017,-0.0484
29.56,0.4687,-0.7789,9.2488,0.1104,0.0805,-0.0354
29.58,0.7402,-0.7422,9.7973,0.1438,0.1009,0.038
29.6,0.0817,-1.3982,8.4938,-0.0314,0.0101,0.0648
29.62,0.2801,-0.7544,8.9433,-0.0959,-0.0674,0.0929
29.64,0.5779,-0.7512,9.5565,-0.2266,-0.1064,0.2072
29.66,0.1677,-0.8979,9.2853,-0.389,-0.2284,0.244
29.68,-0.3001,-1.3833,8.9745,-0.5479,-0.2484,0.2709
29.7,0.0626,-0.8795,9.9886,-0.5485,-0.0578,0.2729
29.72,-0.6364,-1.1081,9.9801,-0.4813,0.0834,0.1767
29.74,-0.0949,-1.2734,11.2333,-0.2663,0.2646,0.0751
29.76,0.6907,-1.2228,11.8355,-0.0568,0.3482,-0.0318
29.78,1.0513,-1.7567,11.1249,0.2116,0.2063,-0.0933
29.8,1.9477,-1.0857,10.8818,0.4218,0.1264,-0.1544
29.82,1.5423,-0.9317,10.0155,0.5404,-0.0661,-0.2757
29.84,1.312,-0.8709,9.2254,0.5193,-0.1828,-0.2736
29.86,1.0268,-0.8139,9.299,0.4049,-0.2237,-0.2863
29.88,0.808,-0.7374,9.323,0.2379,-0.1739,-0.1761
29.9,0.6756,-0.6796,9.3861,0.0703,-0.0738,-0.1348
29.92,0.6428,-0.7507,9.4663,-0.0738,0.0204,-0.0915
29.94,0.7678,-0.83,9.5315,-0.1445,0.1334,-0.0245
29.96,0.4654,-0.7847,9.576,-0.1946,0.0801,0.0027
29.98,0.8256,-0.8649,9.9932,-0.1275,0.0656,0.0351
30.0,0.753,-0.5062,10.1104,-0.034,0.084,0.0762
30.02,0.6817,-0.6356,10.1569,-0.0654,-0.0168,0.0121
30.04,0.9053,-0.8702,10.3993,0.0072,0.0066,0.0472
30.06,0.9435,-0.781,10.2618,0.0256,0.0158,0.0218
30.08,0.922,-0.8523,10.4988,0.0183,0.0283,0.0247
30.1,0.7816,-0.7712,9.8861,-0.0219,0.02,-0.023
30.12,0.8196,-0.7326,9.7767,-0.0471,-0.004,-0.0118
30.14,0.6001,-0.598,9.8079,-0.0383,0.0043,0.0049
30.16,0.6837,-1.0455,9.8698,0.0036,0.018,0.0497
30.18,0.5704,-1.0659,9.9284,-0.0023,-0.0086,0.0418
30.2,0.6695,-0.948,9.9406,0.0231,-0.019,0.0091
30.22,0.8139,-0.695,9.7464,0.0721,0.0351,0.0292
30.24,0.4368,-0.9017,9.8975,0.1057,0.0378,0.0381
30.26,0.9459,-0.9386,9.8667,0.1062,0.0481,0.0258
30.28,0.7063,-0.9559,9.4317,0.1643,0.0684,0.0367
30.3,0.5726,-1.2117,9.2333,0.0548,0.0439,-0.0632
30.32,0.5891,-0.9921,9.5191,-0.0453,-0.0036,-0.1119
30.34,0.6414,-0.9119,9.2804,-0.1473,-0.1177,-0.1115
30.36,0.2495,-1.0057,9.1253,-0.3334,-0.2082,-0.2052
30.38,0.2547,-1.076,9.4624,-0.431,-0.1602,-0.2529
30.4,-0.1101,-0.7167,9.621,-0.4697,-0.1347,-0.2243
30.42,-0.1438,-0.5516,10.2576,-0.4416,0.0096,-0.1927
30.44,-0.1578,-0.5746,11.0367,-0.2991,0.189,-0.128
30.46,0.2581,-0.2468,11.659,-0.1233,0.2965,-0.0306
30.48,0.5451,-0.9002,10.8261,0.1158,0.2241,0.0405
30.5,1.378,-0.245,10.6503,0.3449,0.1375,0.1525
30.52,1.6449,-0.8605,9.787,0.4599,0.0204,0.2093
30.54,1.1073,-0.9503,8.9978,0.4255,-0.1822,0.2601
30.56,0.7192,-0.9691,9.1618,0.3611,-0.2417,0.2472
30.58,0.6087,-1.0362,9.0206,0.2484,-0.1842,0.1749
30.6,0.2255,-1.0405,8.8147,0.0864,-0.1346,0.1445
30.62,0.3288,-1.1719,9.4702,0.0285,-0.0168,0.1296
30.64,0.291,-1.12,9.4225,-0.1095,0.0732,0.0337
30.66,0.111,-1.2387,9.119,-0.1467,0.0644,-0.0085
30.68,0.548,-0.9849,9.5484,-0.1514,0.0592,-0.0279
30.7,0.1619,-1.1335,9.4383,-0.1329,0.0132,-0.041
30.72,-0.1349,-1.3424,9.6633,-0.0738,0.0277,-0.0366
30.74,0.6152,-0.8052,9.9172,-0.0213,-0.0174,-0.0254
30.76,0.4662,-0.9352,9.8849,-0.0189,0.0051,-0.013
30.78,0.2085,-1.0255,10.079,0.0385,0.0273,-0.0068
30.8,0.5684,-0.8879,9.7039,0.009,0.0242,0.0153
30.82,0.2937,-0.7819,9.6795,-0.0041,0.0015,-0.0037
30.84,0.7248,-0.5745,9.6953,0.0198,-0.0194,-0.004
30.86,0.767,-0.7537,9.7355,-0.0076,-0.0257,-0.0061
30.88,0.5385,-0.9615,9.4928,0.0142,-0.0261,0.0164
30.9,0.5811,-0.9461,9.7974,0.0544,-0.0168,0.001
30.92,0.6524,-0.8831,9.4023,0.0947,0.0271,-0.0296
30.94,0.5702,-0.7015,9.7242,0.1136,0.0487,-0.0437
30.96,0.8337,-0.7422,9.7722,0.1689,0.1196,0.0254
30.98,0.5759,-0.8358,9.3734,0.1611,0.0602,0.0263
31.0,0.4621,-0.5922,9.3189,0.0243,0.0235,0.0576
31.02,0.1151,-0.8906,9.042,-0.1192,-0.074,0.0819
31.04,0.2319,-0.9537,9.0349,-0.2741,-0.1898,0.1861
31.06,0.3086,-0.9355,9.0188,-0.4119,-0.2415,0.2209
31.08,0.0987,-0.8929,9.2211,-0.5165,-0.2437,0.2848
31.1,-0.2719,-1.0385,9.6685,-0.5964,-0.1141,0.2689
31.12,-0.0278,-1.13,11.0463,-0.4019,0.0634,0.2252
31.14,-0.224,-1.475,11.2598,-0.2786,0.2225,0.145
31.16,0.4515,-1.2012,11.902,-0.0417,0.2929,-0.0051
31.18,0.9492,-1.1551,11.4921,0.2294,0.2878,-0.144
31.2,1.8524,-1.22,10.647,0.4503,0.0928,-0.2009
31.22,1.5982,-0.9152,9.8536,0.5304,-0.0597,-0.2576
31.24,1.2636,-0.8362,9.4051,0.532,-0.1885,-0.2827
31.26,1.119,-0.7186,9.3708,0.457,-0.2202,-0.2635
31.28,1.1355,-0.585,9.564,0.2947,-0.1598,-0.2177
31.3,0.9888,-0.7829,9.1221,0.0655,-0.0961,-0.1313
31.32,0.696,-0.4663,9.6506,0.0058,0.0551,-0.0779
31.34,0.3251,-0.5117,9.4356,-0.1619,0.0375,-0.0233
31.36,0.4806,-0.5874,9.8445,-0.109,0.1177,0.0145
31.38,0.5126,-0.6818,9.8236,-0.1317,0.0702,0.0202
31.4,1.0462,-0.565,10.1534,-0.1336,-0.0021,0.0628
31.42,0.58,-0.729,10.0157,-0.0476,0.0351,0.0435
31.44,0.6168,-0.7684,9.9507,-0.0134,-0.0448,0.0588
31.46,0.8447,-0.6214,10.1387,0.0039,-0.0083,0.042
31.48,0.3935,-0.7757,9.9827,-0.002,0.0111,-0.0229
31.5,0.6914,-0.9109,9.8506,-0.0079,-0.0142,0.021
31.52,0.8751,-0.796,9.7596,0.0062,0.008,-0.0189
31.54,0.7924,-0.5748,10.0781,0.0068,0.0223,0.0294
31.56,0.5247,-0.6529,9.7564,-0.0651,0.0236,0.0106
31.58,0.5899,-0.8512,9.7063,-0.034,0.0325,0.0034
31.6,0.778,-0.763,10.2539,0.0465,0.0321,0.0211
31.62,0.6289,-0.8447,9.8542,-0.0076,-0.0474,0.0424
31.64,0.9012,-0.4488,10.2046,0.027,0.0174,0.0292
31.66,0.5596,-0.8744,9.8538,0.028,-0.0168,0.0225
31.68,1.0232,-0.9791,9.903,0.0416,-0.0269,0.0317
31.7,0.8532,-0.7914,9.6978,0.0695,0.0306,0.0281
31.72,0.4674,-0.9434,9.424,0.091,0.1048,0.0339
31.74,0.7656,-1.1279,9.2754,0.0781,0.0644,0.0266
31.76,0.5807,-1.0335,9.4678,0.1029,0.0638,-0.0379
31.78,0.8651,-0.8695,9.6487,0.0072,0.0159,-0.0837
31.8,0.334,-0.9099,9.2985,-0.1301,-0.072,-0.1198
31.82,0.6978,-0.8436,9.3799,-0.2499,-0.1529,-0.1673
31.84,0.6487,-0.7331,9.4079,-0.3458,-0.1483,-0.1939
31.86,-0.0786,-0.651,9.6226,-0.4612,-0.1142,-0.2655
31.88,-0.332,-0.7647,9.5485,-0.4834,-0.0614,-0.2318
31.9,-0.0403,-0.6019,10.4122,-0.3478,0.1359,-0.1661
31.92,0.157,-0.6111,11.3596,-0.1907,0.2574,-0.0627
31.94,0.4806,-0.8266,11.0279,0.0348,0.2371,0.0207
31.96,1.212,-0.8361,10.6262,0.2929,0.1946,0.1206
31.98,1.17,-0.9509,9.5686,0.4555,0.0003,0.1828
32.0,1.1188,-0.8283,9.2039,0.5022,-0.1262,0.2611
32.02,1.5237,-0.9251,9.3846,0.4778,-0.1762,0.256
32.04,0.8452,-1.1703,8.9608,0.2962,-0.1966,0.2112
32.06,0.5339,-1.0636,9.3925,0.1583,-0.109,0.1341
32.08,0.4192,-1.3202,9.1828,0.0274,-0.0237,0.0761
32.1,0.2549,-1.2633,9.0672,-0.0662,0.0385,0.0312
32.12,0.7289,-1.3595,9.4616,-0.1221,0.1089,0.0151
32.14,0.5054,-0.8435,9.2463,-0.1369,0.0406,-0.0105
32.16,-0.0753,-0.9545,9.3761,-0.1338,0.0272,-0.0613
32.18,0.4153,-0.9942,9.633,-0.0954,-0.0112,-0.0377
32.2,-0.3304,-0.9739,9.2548,-0.1107,-0.0424,-0.0593
32.22,0.1343,-0.9442,9.6415,-0.0567,-0.0497,0.0091
32.24,0.5701,-0.8852,9.5851,0.0043,-0.0236,-0.0103
32.26,0.2881,-1.0054,9.578,-0.0187,-0.0176,-0.0435
32.28,0.6839,-0.9172,9.4942,0.0378,0.0427,-0.0281
32.3,0.6005,-0.7381,9.7512,0.0441,0.0011,0.0101
32.32,0.7798,-1.0294,9.6378,0.0168,0.0154,0.0229
32.34,0.3537,-0.9535,9.7796,-0.0395,-0.0056,-0.0337
32.36,0.5271,-0.9777,9.5866,-0.0341,-0.0101,-0.0273
32.38,0.7039,-1.2597,9.7028,0.0078,-0.0182,-0.0328
32.4,0.8216,-0.8885,9.7138,-0.0176,-0.0091,0.0086
32.42,0.4507,-0.7592,9.7588,0.0198,-0.0158,-0.0238
32.44,0.9933,-0.8556,9.8196,0.09,-0.0273,-0.073
32.46,0.9818,-0.7321,9.6823,0.1168,0.0514,-0.054
32.48,0.8009,-0.6307,9.4398,0.1047,0.0408,-0.0596
32.5,0.688,-0.6645,9.6048,0.1445,0.0929,-0.004
32.52,0.7389,-0.9714,9.4326,0.1115,0.0649,0.0232
32.54,0.2882,-0.7924,9.5487,0.0234,0.0179,0.0989
32.56,0.5217,-0.8637,9.3678,-0.1509,-0.1109,0.1189
32.58,0.7633,-0.7192,9.2718,-0.2981,-0.1614,0.2269
32.6,0.362,-0.4594,9.1371,-0.4214,-0.2204,0.2359
32.62,-0.0776,-1.0178,9.3328,-0.5356,-0.1817,0.263
32.64,-0.2747,-1.2877,9.7325,-0.5713,-0.0731,0.2022
32.66,-0.2161,-0.9991,10.5747,-0.4344,0.0971,0.1498
32.68,0.3913,-1.1607,11.5861,-0.2531,0.2841,0.0645
32.7,0.6745,-1.0676,11.7464,0.0675,0.3148,-0.0012
32.72,1.3994,-1.084,11.3117,0.2885,0.1586,-0.1193
32.74,1.3395,-1.2988,10.1164,0.483,0.0504,-0.2052
32.76,1.7169,-1.0839,9.6507,0.5166,-0.1393,-0.2575
32.78,1.2875,-0.8544,9.4647,0.5218,-0.2129,-0.2598
32.8,1.0579,-0.6696,9.2484,0.3255,-0.2135,-0.2337
32.82,1.0136,-0.6417,9.5441,0.2163,-0.0927,-0.1523
32.84,0.9061,-0.6197,9.8834,0.0414,-0.0497,-0.0896
32.86,0.4964,-0.7986,9.5781,-0.1165,0.0469,-0.0748
32.88,0.8956,-0.815,9.9317,-0.1033,0.0838,0.0144
32.9,0.6861,-0.5541,10.1601,-0.1226,0.0737,0.0571
32.92,0.6822,-0.8503,9.6173,-0.1549,0.0597,-0.0245
32.94,0.3848,-0.8436,9.8219,-0.1162,-0.008,0.0163
32.96,0.7907,-0.6824,9.8944,-0.0555,0.0132,0.0651
32.98,0.2749,-0.9385,9.9464,-0.0333,-0.0296,0.0257
33.0,0.9022,-0.655,10.0915,-0.0289,-0.0243,0.0029
33.02,0.8815,-0.9465,10.0094,-0.0103,-0.0107,0.0158
33.04,1.1567,-0.6973,10.3402,0.0369,0.0466,0.05
33.06,0.7088,-0.6208,9.9233,0.0105,-0.0175,-0.0011
33.08,0.921,-1.0451,10.1522,0.0556,-0.0141,0.0538
33.1,1.003,-0.8551,9.9545,0.1123,0.0046,0.0289
33.12,0.6917,-0.4853,9.7899,0.1093,0.0309,0.0831
33.14,0.5894,-0.7691,9.6336,0.1296,0.0971,0.0251
33.16,1.0378,-0.9641,9.5431,0.1086,0.0494,-0.0077
33.18,0.661,-1.3466,9.1313,0.0467,0.0546,-0.0579
33.2,0.3107,-1.0588,9.5261,-0.0259,0.0049,-0.1365
33.22,0.5879,-1.1176,9.2016,-0.1848,-0.1077,-0.1976
33.24,0.1432,-0.7996,8.9716,-0.393,-0.2189,-0.2299
33.26,-0.2253,-1.0148,9.2451,-0.5047,-0.2361,-0.2986
33.28,-0.2171,-0.816,9.3606,-0.549,-0.1763,-0.2677
33.3,-0.2961,-0.872,9.9088,-0.4832,0.0414,-0.2135
33.32,-0.2283,-0.6434,10.6769,-0.3341,0.1877,-0.1718
33.34,0.263,-0.4591,11.3643,-0.1051,0.3234,-0.0457
33.36,0.8918,-0.8634,11.2217,0.1696,0.2952,0.0669
33.38,1.5642,-0.4955,10.8892,0.3638,0.1611,0.1839
33.4,1.3927,-0.7192,9.5164,0.5073,-0.0246,0.2603
33.42,1.0764,-0.8696,8.9403,0.4973,-0.167,0.2743
33.44,1.2626,-0.9542,9.0072,0.4889,-0.2372,0.2779
33.46,0.6932,-1.0649,8.9403,0.2974,-0.2185,0.1939
33.48,0.6514,-1.0293,8.7827,0.1086,-0.0975,0.1751
33.5,0.5009,-0.9466,9.2657,0.0153,-0.0438,0.1127
33.52,0.3535,-0.9115,9.3681,-0.0996,0.0652,0.0267
33.54,0.4653,-0.9287,9.3375,-0.1837,0.0686,-0.0178
33.56,0.4771,-0.8667,9.6276,-0.1553,0.0878,-0.0052
33.58,0.035,-1.1119,9.3362,-0.152,0.0277,-0.0325
33.6,0.3163,-0.943,9.4991,-0.0886,-0.0249,-0.0321
33.62,0.4334,-0.8886,9.4914,-0.0469,-0.0612,-0.0555
33.64,0.39,-1.1355,9.5624,-0.0296,0.0076,-0.0006
33.66,0.526,-0.7092,9.9439,0.0394,0.0181,-0.0256
33.68,0.714,-0.7435,9.6044,0.0096,-0.0256,-0.027
33.7,0.4897,-0.6459,9.51,-0.0072,0.0188,0.0117
33.72,0.4785,-1.1216,9.3149,-0.0437,-0.0053,-0.0245
33.74,0.3222,-1.2164,9.5256,0.0161,-0.0341,-0.0144
33.76,0.6993,-0.5438,9.9357,0.0274,-0.0239,0.0033
33.78,0.5277,-0.9297,9.6325,0.0244,0.0016,-0.0122
33.8,0.8838,-1.0842,9.5592,0.1053,-0.0159,-0.0566
33.82,0.9673,-0.7505,10.0425,0.1724,0.072,-0.0548
33.84,0.7852,-0.7554,9.6765,0.1781,0.0886,0.0038
33.86,0.6806,-0.6838,9.6736,0.1535,0.101,0.0127
33.88,0.8085,-0.3987,9.4861,0.1511,0.0789,0.0735
33.9,0.6523,-0.6261,9.5585,0.0205,0.0266,0.0839
33.92,0.4778,-0.4207,9.2615,-0.1296,-0.1173,0.163
33.94,0.4668,-0.7197,9.1772,-0.36,-0.2022,0.2407
33.96,-0.0751,-1.0529,9.2382,-0.5416,-0.2307,0.2445
33.98,-0.2354,-0.8834,9.5543,-0.5944,-0.1723,0.2713
34.0,-0.1638,-0.9823,9.9876,-0.5433,-0.0521,0.2176
34.02,-0.2491,-1.1757,10.9912,-0.3732,0.1725,0.1786
34.04,0.6705,-1.1023,12.0186,-0.1511,0.2732,0.0925
34.06,1.1173,-1.1778,11.6642,0.1547,0.3414,-0.0199
34.08,1.8718,-1.0128,11.3967,0.4025,0.214,-0.165
34.1,1.5579,-1.0544,10.0087,0.4853,-0.0096,-0.2227
34.12,1.6603,-0.9921,9.454,0.5782,-0.1945,-0.2684
34.14,1.384,-0.6323,9.5151,0.5249,-0.2671,-0.2848
34.16,1.0824,-0.473,9.7225,0.3723,-0.1747,-0.2131
34.18,1.0192,-0.5949,9.3846,0.1826,-0.1861,-0.2037
34.2,1.2172,-0.8106,9.5506,0.0323,0.0258,-0.1038
34.22,0.62,-0.433,9.6138,-0.1022,0.0607,-0.0462
34.24,0.9268,-0.4458,9.7279,-0.1209,0.0864,-0.0134
34.26,0.7552,-0.5145,9.5745,-0.1942,0.0915,0.0608
34.28,0.7062,-0.917,9.8947,-0.1056,0.0372,0.0127
34.3,0.4939,-0.5736,10.0446,-0.0631,-0.007,0.0617
34.32,0.9844,-0.6675,10.2362,-0.0496,-0.0275,0.0031
34.34,0.9323,-0.867,9.9799,0.0027,-0.0141,0.0265
34.36,0.8092,-0.6716,10.0777,0.0191,-0.026,0.0174
34.38,0.6566,-0.8775,9.7568,-0.0554,-0.0483,-0.0063
34.4,0.7323,-0.7683,9.8505,-0.0129,-0.0147,0.0034
34.42,0.6461,-0.9033,9.7873,-0.0024,-0.0164,0.0536
34.44,0.9483,-0.864,9.8585,-0.0096,-0.0247,0.0048
34.46,0.719,-0.8291,10.0475,0.0201,-0.0343,0.0096
34.48,0.6739,-0.7359,9.8716,0.0557,0.0079,-0.0156
34.5,1.1465,-0.792,10.1422,0.1397,0.0548,0.0363
34.52,0.8467,-0.8607,9.5426,0.1112,0.0284,0.014
34.54,0.7508,-0.6981,9.763,0.1567,0.0875,0.0472
34.56,0.8889,-1.0249,9.4986,0.1258,0.0404,-0.0241
34.58,0.7858,-0.816,9.3903,0.0444,0.0487,-0.0307
34.6,0.6842,-0.6276,9.5074,-0.0235,-0.0426,-0.1138
34.62,0.4076,-1.0401,9.3803,-0.2234,-0.1596,-0.1712
34.64,0.3051,-0.9032,9.1894,-0.361,-0.246,-0.2253
34.66,-0.0331,-0.7221,9.3156,-0.4807,-0.209,-0.244
34.68,-0.3244,-0.7958,9.3462,-0.5594,-0.1659,-0.2743
34.7,-0.2384,-0.5397,10.1881,-0.4621,0.0796,-0.1802
34.72,-0.0034,-0.4347,10.954,-0.2999,0.2221,-0.1323
34.74,0.4373,-0.2344,11.3763,-0.0856,0.3189,-0.0044
34.76,0.7577,-0.4109,11.2031,0.1944,0.2634,0.0765
34.78,1.3933,-0.7143,10.3813,0.4235,0.1723,0.1759
34.8,1.2992,-0.7422,9.6085,0.5453,-0.0383,0.2814
34.82,1.1474,-0.8655,9.1112,0.5404,-0.1957,0.2565
34.84,1.0199,-1.0643,9.1128,0.4327,-0.2554,0.2669
34.86,0.5753,-0.7594,9.4786,0.3665,-0.1598,0.2102
34.88,0.5892,-1.2086,9.1364,0.0781,-0.0984,0.126
34.9,0.6087,-0.9879,9.3857,-0.0115,-0.0006,0.0901
34.92,0.1311,-1.1489,8.9688,-0.2006,0.065,0.0149
34.94,0.1065,-1.4467,9.3936,-0.1459,0.0799,-0.0168
34.96,0.425,-0.9595,9.4812,-0.1128,0.0636,-0.0635
34.98,0.1261,-0.8513,9.3545,-0.0667,0.0014,-0.0616
35.0,0.4277,-0.8017,9.789,-0.0742,0.0236,-0.0365
35.02,0.2183,-1.1077,9.4292,-0.0756,-0.0519,-0.0583
35.04,0.6193,-1.1856,9.7449,-0.0094,-0.0361,-0.0205
35.06,0.2858,-0.8653,9.5279,0.0016,-0.0257,-0.0216
35.08,0.7136,-0.7784,9.8081,0.0159,-0.0251,0.0033
35.1,0.467,-0.9022,9.4588,-0.0122,-0.0344,-0.0371
35.12,0.6722,-0.6678,10.0157,0.0521,-0.0192,-0.0221
35.14,0.5104,-1.0055,9.7221,0.0533,-0.0097,-0.0149
35.16,0.7027,-0.9848,9.5685,0.0316,-0.038,-0.0338
35.18,0.7965,-0.7387,9.639,0.0787,0.0014,-0.0007
35.2,0.5786,-0.8438,9.4584,0.1149,0.0116,0.0097
35.22,0.9212,-1.0113,9.5312,0.1415,0.0911,-0.0333
35.24,0.615,-0.7447,9.4079,0.1609,0.1068,0.0083
35.26,1.0581,-0.7062,9.6964,0.083,0.0632,0.0505
35.28,0.6377,-0.863,8.9649,-0.0403,-0.0263,0.0837
35.3,0.6789,-0.516,9.2932,-0.068,-0.0836,0.1615
35.32,0.333,-0.7394,9.2182,-0.2975,-0.2458,0.197
35.34,0.3038,-0.656,9.4369,-0.4535,-0.1954,0.2538
35.36,-0.2177,-0.8603,9.34,-0.5048,-0.1566,0.2268
35.38,-0.2054,-1.1295,9.8214,-0.5173,-0.0089,0.2283
35.4,0.5094,-1.0326,11.1044,-0.3134,0.1571,0.1457
35.42,0.3005,-1.0398,11.4467,-0.1025,0.2552,0.0509
35.44,0.8388,-1.4358,11.1536,0.1047,0.2409,-0.0656
35.46,1.3362,-1.1034,10.7902,0.3348,0.1487,-0.1502
35.48,1.6182,-1.1326,9.9824,0.539,-0.0308,-0.191
35.5,1.2821,-0.9391,9.9205,0.4766,-0.1576,-0.2348
35.52,1.277,-0.8199,9.2976,0.4585,-0.1903,-0.2546
35.54,1.0505,-0.8305,9.0738,0.2717,-0.2085,-0.2314
35.56,1.1636,-0.6456,9.5729,0.1776,-0.1122,-0.149
35.58,0.8223,-0.598,9.4163,0.0157,-0.0027,-0.0808
35.6,0.6687,-0.6946,9.9266,-0.0538,0.082,-0.0322
35.62,0.4699,-0.6308,9.7846,-0.1236,0.0752,-0.0204
35.64,0.6859,-0.5858,9.8015,-0.1356,0.0713,0.0527
35.66,0.6605,-0.616,9.6913,-0.1493,0.0289,0.0767
35.68,0.751,-0.8901,9.9949,-0.0776,-0.0189,0.0441
35.7,0.7107,-0.817,9.76,-0.0193,-0.0197,0.0613
35.72,0.7395,-0.7573,10.0437,-0.0001,-0.0215,0.013
35.74,1.0213,-0.7398,10.1236,0.0301,-0.0004,0.0121
35.76,0.9984,-0.8485,9.7668,0.0085,-0.0059,0.0157
35.78,0.7728,-0.9249,9.723,-0.0325,-0.066,-0.0007
35.8,0.9283,-0.4947,10.0709,-0.0006,-0.0334,0.0478
35.82,0.3867,-0.8216,10.2789,0.0337,0.036,-0.0203
35.84,0.6704,-0.6945,9.7334,0.0162,0.0209,-0.003
35.86,0.8351,-0.6847,9.9295,0.0085,-0.0097,-0.0049
35.88,0.8075,-0.8343,10.0042,0.0382,0.0158,-0.0075
35.9,0.0756,-1.0919,9.7977,-0.003,-0.0516,0.0023
35.92,0.6437,-0.8122,9.9301,0.0086,-0.0097,0.0273
35.94,0.8718,-0.6599,10.351,0.0617,0.0117,0.0535
35.96,0.7482,-0.8021,9.6121,0.0424,-0.0217,0.0194
35.98,0.7499,-1.0175,9.8561,0.0996,0.0308,0.0353
36.0,1.1865,-0.6463,9.8361,0.1539,0.0598,0.0739
36.02,0.5787,-0.9733,9.5302,0.0647,0.0212,0.0274
36.04,0.7381,-0.7041,9.5803,0.1073,0.0462,0.008
36.06,0.6541,-0.9438,9.5139,0.0951,0.0654,-0.0232
36.08,0.4167,-0.9985,9.2663,0.0084,-0.0422,-0.0542
36.1,0.3665,-1.0661,9.2659,-0.1099,-0.1062,-0.156
36.12,0.3601,-1.0653,9.6253,-0.2546,-0.1774,-0.1603
36.14,0.363,-0.9876,8.9974,-0.3679,-0.1822,-0.185
36.16,-0.1536,-0.5602,9.3527,-0.4446,-0.1626,-0.2084
36.18,-0.178,-0.3274,9.8782,-0.3834,-0.0184,-0.1767
36.2,-0.0567,-0.5283,10.3215,-0.3245,0.1096,-0.1237
36.22,0.2063,-0.6965,10.5821,-0.1892,0.2041,-0.0787
36.24,0.9054,-0.5835,10.9787,0.0759,0.2474,0.0282
36.26,1.1538,-0.5551,10.6144,0.2967,0.1795,0.135
36.28,1.429,-0.8991,9.7568,0.4185,0.015,0.1855
36.3,1.2542,-0.5784,9.4807,0.4703,-0.1011,0.2494
36.32,1.078,-0.7967,9.1318,0.4214,-0.1683,0.2404
36.34,1.0131,-0.9567,9.3796,0.258,-0.2015,0.2113
36.36,0.7127,-0.8318,9.3302,0.1542,-0.1027,0.1359
36.38,0.475,-0.7013,9.1933,0.0082,-0.0258,0.0956
36.4,0.5902,-0.9488,9.2172,-0.0657,0.0168,0.0851
36.42,0.4281,-0.7266,9.6503,-0.0678,0.0985,0.0222
36.44,0.6481,-1.0926,9.3728,-0.1332,0.0164,-0.0614
36.46,0.4456,-0.6477,9.1795,-0.0873,0.0023,-0.0273
36.48,0.711,-0.9619,9.5841,-0.0386,0.0093,0.0117
36.5,0.2474,-0.6663,9.5669,-0.0397,-0.0303,-0.032
36.52,0.7411,-0.6417,9.6589,0.0075,0.0051,-0.0038
36.54,0.5453,-0.9656,9.6605,-0.0206,-0.016,-0.0122
36.56,0.6645,-0.8967,9.6679,0.01,-0.0269,-0.0117
36.58,0.7581,-0.6213,9.6173,-0.011,0.0174,0.0009
36.6,0.3984,-0.9262,9.4079,-0.0504,-0.0314,-0.0051
36.62,0.5013,-0.974,9.5482,0.0114,-0.0319,-0.0268
36.64,0.595,-1.0197,9.4288,-0.0193,-0.0521,-0.0047
36.66,0.5978,-0.905,9.6857,0.0189,-0.048,-0.0299
36.68,0.687,-0.7525,9.9468,0.067,-0.0489,-0.0494
36.7,0.641,-1.1656,9.5945,0.0614,-0.0403,-0.063
36.72,0.6918,-1.0998,9.4478,0.1085,0.0289,-0.0159
36.74,0.7379,-0.6942,9.8733,0.1397,0.0222,-0.039
36.76,0.7279,-0.8156,9.4857,0.1417,0.0531,-0.0043
36.78,0.9728,-0.4182,9.6707,0.1272,0.1212,0.0543
36.8,0.6054,-0.599,9.2207,0.0478,0.049,0.1049
36.82,0.9666,-0.693,9.8719,-0.0798,-0.0513,0.155
36.84,0.5628,-0.661,9.5224,-0.25,-0.1723,0.2093
36.86,0.2818,-0.5502,9.2063,-0.3792,-0.2507,0.2043
36.88,0.0212,-0.6649,9.1663,-0.4804,-0.2044,0.2596
36.9,-0.1353,-0.6995,9.7812,-0.5109,-0.0684,0.2403
36.92,-0.084,-0.9269,10.3569,-0.4215,0.1015,0.1652
36.94,0.1254,-1.2396,11.0394,-0.2296,0.2839,0.0833
36.96,1.0076,-1.0439,11.8626,0.0486,0.2726,-0.0158
36.98,1.1947,-1.109,11.0515,0.2567,0.2393,-0.0991
37.0,1.8267,-0.9734,10.5081,0.461,0.0648,-0.2212
37.02,1.5384,-1.0446,9.515,0.5137,-0.093,-0.2185
37.04,1.4387,-0.8313,9.6176,0.4862,-0.2079,-0.2558
37.06,1.2445,-0.5657,9.6575,0.3745,-0.2285,-0.2156
37.08,1.1973,-0.6819,9.8216,0.2166,-0.162,-0.1207
37.1,1.026,-0.5131,9.569,0.0803,-0.0488,-0.0907
37.12,0.6952,-0.6282,9.6143,-0.0369,0.0677,-0.0465
37.14,0.9189,-0.5916,9.7584,-0.1313,0.0966,-0.0476
37.16,0.5089,-0.7424,9.5162,-0.1416,0.0455,-0.007
37.18,0.6559,-0.697,9.8541,-0.0793,0.0563,0.0425
37.2,0.6491,-0.5608,9.84,-0.0785,0.0155,0.0655
37.22,0.4851,-0.7017,9.9559,-0.0843,-0.008,0.0236
37.24,0.6605,-0.8294,9.8141,-0.0319,-0.0414,-0.0194
37.26,0.8753,-0.5388,9.8526,0.0001,-0.0241,0.041
37.28,0.6048,-0.7903,9.7997,-0.0514,-0.0101,0.0058
37.3,0.7774,-0.5569,10.2195,0.0435,0.032,0.0223
37.32,0.7254,-0.6051,9.811,-0.0112,-0.0513,0.0309
37.34,1.1756,-0.9872,10.3701,0.0313,-0.0294,0.0456
37.36,1.054,-0.7863,9.9501,0.1088,-0.066,0.0595
37.38,1.0225,-0.8736,9.7938,0.1121,0.0269,0.0846
37.4,1.0002,-0.7931,9.5745,0.1391,0.09,0.0753
37.42,0.9504,-0.6467,9.7558,0.1976,0.08,0.0128
37.44,0.7309,-1.1922,9.1691,0.0847,0.0552,-0.0462
37.46,0.9644,-1.0176,9.4192,0.0414,0.0276,-0.0892
37.48,0.4228,-0.9215,9.2801,-0.077,-0.0846,-0.1355
37.5,0.4927,-0.8277,9.2386,-0.2392,-0.1831,-0.224
37.52,0.6282,-0.9354,9.3173,-0.4239,-0.2229,-0.2439
37.54,-0.1091,-0.8378,8.9767,-0.5652,-0.2164,-0.2808
37.56,0.06,-0.5737,9.6469,-0.4805,-0.0528,-0.2177
37.58,-0.1473,-0.556,10.4055,-0.4249,0.1178,-0.2033
37.6,-0.1096,-0.5004,10.8521,-0.1959,0.2921,-0.0923
37.62,0.8173,-0.2827,11.6819,0.0457,0.3114,0.044
37.64,1.0282,-0.6054,10.7683,0.2855,0.2641,0.1331
37.66,1.4512,-0.4967,10.2004,0.4843,0.0928,0.1765
37.68,1.5471,-0.699,9.6698,0.5658,-0.0886,0.2675
37.7,1.1377,-0.9666,8.9763,0.495,-0.1989,0.2484
37.72,1.0146,-0.9069,9.3017,0.4161,-0.2023,0.243
37.74,0.7066,-0.8531,9.197,0.2227,-0.1293,0.1967
37.76,0.3473,-1.166,8.9741,0.0325,-0.093,0.1149
37.78,0.6109,-1.1393,9.2428,-0.0455,0.0159,0.0522
37.8,0.4117,-0.987,9.1642,-0.1276,0.0314,0.0082
37.82,0.3858,-1.1584,9.608,-0.115,0.062,0.0069
37.84,0.5687,-1.1618,9.4901,-0.1037,0.0282,-0.0139
37.86,0.4156,-0.9455,9.4551,-0.0883,0.0177,-0.0253
37.88,0.3359,-1.0264,9.6805,-0.0233,-0.0185,0.0024
37.9,0.6877,-0.8566,9.8433,0.0013,0.0069,0.0049
37.92,0.6273,-0.9865,9.5242,-0.035,-0.0023,-0.0101
37.94,0.2077,-0.8292,9.5998,0.0044,-0.0327,-0.0234
37.96,0.6876,-0.8982,9.7098,0.0595,-0.0388,-0.0087
37.98,0.5667,-0.6589,9.7014,0.0065,-0.0223,-0.0012
38.0,0.4921,-0.8737,9.782,-0.0075,-0.0369,0.0021
38.02,0.4903,-0.8515,9.6724,0.024,-0.0341,-0.0168
38.04,0.6788,-0.7636,9.6586,0.0394,-0.0197,-0.0621
38.06,0.8328,-0.7859,9.767,0.1479,0.0265,-0.0241
38.08,0.6807,-0.9748,9.4324,0.0918,0.023,-0.0272
38.1,0.4393,-0.9059,9.5809,0.1526,0.0671,-0.0324
38.12,0.419,-0.5756,9.3875,0.133,0.0423,-0.0073
38.14,0.6944,-0.4612,9.4586,0.0394,0.0219,0.0966
38.16,0.5613,-0.7214,9.4145,-0.0605,-0.0916,0.0726
38.18,0.559,-0.9852,9.4627,-0.2287,-0.188,0.164
38.2,-0.0154,-0.8832,9.0171,-0.4143,-0.2228,0.2334
38.22,0.1546,-0.8299,9.4264,-0.4356,-0.1846,0.2496
38.24,-0.1607,-1.3483,9.6293,-0.497,-0.089,0.2157
38.26,-0.1952,-1.3492,10.1106,-0.4336,0.0733,0.1806
38.28,0.1995,-0.9854,11.1417,-0.241,0.214,0.0801
38.3,0.4366,-0.8079,11.2251,0.0629,0.2926,-0.0002
38.32,1.2523,-0.8486,11.0367,0.2567,0.2154,-0.0941
38.34,1.7094,-0.8085,10.5026,0.45,0.1007,-0.1786
38.36,1.5107,-0.7869,9.5854,0.4913,-0.0832,-0.2298
38.38,1.2871,-0.7988,9.2339,0.4735,-0.2099,-0.2736
38.4,1.1318,-0.7462,9.5296,0.3789,-0.1992,-0.2195
38.42,0.7258,-0.8495,9.3948,0.236,-0.156,-0.1493
38.44,0.8211,-0.6514,9.8035,0.0774,-0.0623,-0.1303
38.46,0.8865,-0.6656,9.6,-0.0329,0.018,-0.0659
38.48,0.604,-0.5522,9.5239,-0.1736,0.0236,-0.0589
38.5,0.7152,-0.6045,9.8584,-0.1341,0.087,0.0391
38.52,0.8254,-0.8365,9.7475,-0.1217,0.0404,0.0288
38.54,0.6736,-0.7058,9.9705,-0.0539,0.0059,0.0294
38.56,0.8902,-0.8241,10.0409,-0.0407,-0.025,0.0266
38.58,0.8844,-0.8186,10.0838,-0.0135,-0.0187,0.0341
38.6,0.9105,-0.8211,10.0956,0.0263,-0.0208,0.0332
38.62,0.5652,-0.713,9.7661,-0.0119,-0.0273,0.0091
38.64,1.6092,-0.2282,10.6688,0.0776,0.0308,-0.0049
38.66,0.2774,-0.8678,9.5255,-0.0634,-0.0535,0.0078
38.68,0.4982,-0.8529,9.8588,-0.0045,-0.0573,0.0082
38.7,1.3606,-0.5629,10.3314,0.0802,0.001,-0.0034
38.72,0.6679,-0.7572,10.2026,0.0405,0.0171,0.0453
38.74,0.9245,-0.785,10.1297,0.063,0.0088,0.0247
38.76,0.4594,-0.9502,9.381,0.0742,-0.0596,0.0492
38.78,0.9521,-0.9005,9.7821,0.1216,0.0706,0.0034
38.8,0.5708,-0.9935,9.2012,0.0951,0.0371,0.031
38.82,1.1174,-0.6262,10.0745,0.1578,0.1151,-0.0052
38.84,0.8395,-0.8438,9.5013,0.0471,0.0028,-0.0771
38.86,0.7671,-0.7475,9.4482,-0.0691,-0.0629,-0.164
38.88,0.4491,-0.8641,9.3649,-0.2282,-0.1582,-0.2602
38.9,0.128,-0.7693,9.0754,-0.4435,-0.2557,-0.2642
38.92,0.0177,-0.9865,9.2698,-0.5227,-0.2094,-0.2932
38.94,0.2613,-0.7109,9.8381,-0.5108,-0.0317,-0.2675
38.96,-0.2208,-0.6156,10.1036,-0.4262,0.0937,-0.2215
38.98,0.6694,-0.4359,11.3985,-0.196,0.2736,-0.0679
39.0,1.1304,-0.3748,11.7699,0.075,0.3248,0.0163
39.02,1.2766,-0.5508,10.9997,0.3139,0.2934,0.1459
39.04,1.7945,-0.6224,10.472,0.5118,0.0667,0.1823
39.06,1.5947,-0.9064,9.6764,0.5985,-0.1176,0.2498
39.08,1.2607,-0.8246,9.1992,0.5645,-0.2063,0.3007
39.1,0.8743,-1.0152,9.0401,0.4224,-0.2298,0.2595
39.12,0.7968,-0.9507,9.1421,0.232,-0.1453,0.1837
39.14,0.8014,-0.7762,9.3929,0.1264,-0.0064,0.1278
39.16,0.7033,-0.9587,9.5231,-0.0334,0.0362,0.1146
39.18,0.6368,-1.2971,9.4849,-0.096,0.0874,0.0616
39.2,0.3446,-1.1087,9.0368,-0.1943,0.036,-0.0034
39.22,0.3813,-0.812,9.3442,-0.1323,0.0183,-0.0314
39.24,0.3388,-0.7829,9.5238,-0.1006,0.0177,-0.0051
39.26,0.6095,-0.966,9.6937,-0.0541,0.0135,-0.0151
39.28,0.4612,-0.8336,9.4943,-0.0007,-0.0068,0.0009
39.3,0.5331,-1.1492,9.4919,-0.0012,-0.0275,-0.0261
39.32,0.2943,-1.0214,9.3241,0.0174,-0.0563,-0.0286
39.34,0.4292,-1.2109,9.5895,0.0152,-0.0162,0.0154
39.36,0.7315,-0.7763,9.6585,0.0492,-0.0072,-0.0078
39.38,0.4113,-0.9542,9.4607,-0.0432,-0.0044,-0.017
39.4,0.5728,-0.7598,9.682,-0.0052,-0.0559,-0.039
39.42,0.6169,-0.8124,9.9545,0.0147,-0.0186,-0.024
39.44,0.6408,-0.7238,9.4591,0.0048,-0.0305,-0.0759
39.46,0.5956,-0.9283,9.9742,0.0495,-0.0167,-0.028
39.48,0.4875,-0.9614,9.6846,0.0774,0.0142,-0.0476
39.5,0.6307,-0.8077,9.5758,0.1321,0.0484,-0.0723
39.52,0.5874,-0.8402,9.3359,0.1724,0.0507,-0.0225
39.54,0.7353,-0.776,9.4189,0.1676,0.0756,0.0084
39.56,0.5373,-0.7486,9.4323,0.124,0.0649,0.0367
39.58,0.6242,-0.8667,9.2757,0.0143,-0.0419,0.0984
39.6,0.675,-0.5766,9.4278,-0.1372,-0.1138,0.144
39.62,0.3648,-0.682,9.2168,-0.3191,-0.2103,0.2596
39.64,0.2675,-0.735,9.1579,-0.4408,-0.2256,0.2204
39.66,0.1103,-0.85,9.5548,-0.5105,-0.1577,0.2567
39.68,-0.0588,-0.8096,10.0961,-0.4695,0.0379,0.2479
39.7,-0.0084,-1.0176,10.8588,-0.3602,0.1806,0.124
39.72,0.2095,-1.138,11.0958,-0.0939,0.2689,0.0327
39.74,1.2871,-0.9807,11.6197,0.1825,0.2579,-0.0849
39.76,1.2321,-1.1621,10.936,0.41,0.1448,-0.1444
39.78,1.7164,-0.8895,9.9023,0.5551,-0.0262,-0.2231
39.8,1.3235,-0.4409,9.6624,0.5281,-0.1468,-0.2425
39.82,1.2825,-0.585,9.5416,0.4564,-0.2394,-0.2198
39.84,0.8934,-0.7578,9.2811,0.32,-0.2092,-0.1931
39.86,1.0856,-0.4773,9.542,0.1342,-0.0699,-0.1292
39.88,0.8645,-0.5163,9.5368,-0.0143,-0.0293,-0.0906
39.9,0.6467,-0.8384,9.7637,-0.061,0.074,-0.0289
39.92,0.8402,-0.6502,9.6773,-0.1064,0.1005,0.031
39.94,0.8175,-0.7025,9.8117,-0.1251,0.0621,0.0098
39.96,0.6207,-0.6673,10.1232,-0.0613,0.0136,0.0534
39.98,0.6917,-0.791,9.8603,-0.0516,-0.0054,0.008
40.0,0.9366,-0.8985,9.9318,-0.0051,-0.0176,0.0202
40.02,0.8031,-0.5874,9.948,0.0133,-0.0023,0.0092
40.04,0.6354,-0.9741,9.6402,0.0076,-0.0186,-0.0214
40.06,0.8034,-0.7543,9.9347,0.0342,0.0026,-0.0292
40.08,0.6256,-0.7154,10.0401,0.0391,-0.0238,0.0091
40.1,0.8427,-0.7519,9.7857,0.0324,-0.0548,-0.0277
40.12,0.858,-0.8558,10.0475,0.0128,0.015,0.0206
40.14,0.6236,-0.8537,9.6074,-0.0022,-0.0192,-0.0314
40.16,0.9578,-0.4785,9.8288,0.0636,0.0579,-0.0088
40.18,0.8092,-0.7825,9.8742,0.0049,0.0097,0.0013
40.2,0.6966,-0.8662,9.8885,0.0202,-0.0288,0.0025
40.22,0.7289,-0.6184,10.0799,-0.0462,0.0099,-0.0172
40.24,0.6977,-0.7251,9.8471,0.0182,-0.0275,-0.0028
40.26,0.8275,-0.7276,9.9733,0.0231,-0.0382,0.0711
40.28,0.7375,-0.9171,9.8637,0.0304,-0.0299,0.0434
40.3,0.8812,-0.7642,9.8482,0.0856,-0.0091,0.0584
40.32,0.6949,-0.8428,9.8066,0.0676,-0.0371,0.0323
40.34,0.5275,-0.7796,9.7436,0.1336,0.041,0.0562
40.36,0.8749,-1.0039,9.4867,0.1314,0.0932,0.0383
40.38,0.7264,-1.0845,9.333,0.1519,0.0556,-0.0233
40.4,0.8271,-1.2437,9.3872,0.0549,0.038,-0.0852
40.42,0.587,-0.8355,9.3968,-0.0582,-0.064,-0.1474
40.44,0.2027,-0.9524,9.111,-0.2142,-0.1657,-0.2171
40.46,0.1415,-1.1628,8.9702,-0.3806,-0.2193,-0.2432
40.48,0.2994,-0.7155,9.1061,-0.4688,-0.2181,-0.2606
40.5,-0.4132,-0.8394,9.4694,-0.5413,-0.1127,-0.2425
40.52,-0.0344,-0.6394,9.7798,-0.4177,0.0432,-0.2126
40.54,0.3459,-0.5666,11.0771,-0.2685,0.2125,-0.1279
40.56,0.1413,-0.8212,10.9034,-0.0723,0.3249,-0.0415
40.58,0.6701,-0.771,10.9077,0.2003,0.2684,0.0932
40.6,1.1834,-0.7038,10.1738,0.4255,0.0941,0.1843
40.62,0.9601,-0.8286,9.1806,0.5019,-0.0794,0.2597
40.64,0.9432,-0.7696,9.0111,0.5387,-0.1955,0.3025
40.66,0.7517,-1.0616,8.8354,0.3763,-0.2447,0.2522
40.68,0.5568,-0.9204,9.0862,0.2615,-0.1719,0.2348
40.7,0.5872,-0.9086,9.1843,0.1354,-0.0816,0.1311
40.72,0.638,-1.0671,9.1303,-0.0386,0.0301,0.0588
40.74,0.4523,-0.756,9.1302,-0.0896,0.0547,-0.0026
40.76,0.3535,-1.1464,9.3469,-0.1681,0.0592,-0.0243
40.78,0.0712,-1.0321,9.3163,-0.1185,-0.0011,-0.0228
40.8,0.2842,-0.9844,9.5742,-0.1276,-0.007,-0.0432
40.82,0.6096,-0.8312,9.7524,-0.0038,0.0171,0.0068
40.84,0.455,-0.9366,9.5303,-0.0491,-0.0618,-0.0078
40.86,0.4486,-0.8341,9.7007,0.0347,-0.0165,0.0121
40.88,0.452,-0.8692,9.5618,-0.0135,-0.0561,-0.036
40.9,0.5761,-1.0239,9.2901,0.0045,-0.0184,-0.0269
40.92,0.5025,-0.8232,9.773,0.0183,-0.0086,-0.0074
40.94,0.5289,-0.8524,9.6641,0.0021,-0.0059,-0.0049
40.96,0.5272,-0.8948,9.6578,-0.0278,-0.0282,-0.0226
40.98,0.5316,-1.0019,9.5395,0.0155,-0.0364,-0.0211
41.0,0.9687,-0.8065,10.1142,0.1013,0.0233,-0.0118
41.02,0.9578,-0.7029,10.0034,0.1691,0.0582,-0.0067
41.04,0.6314,-0.6924,9.5192,0.1312,0.0246,-0.0632
41.06,0.4429,-0.9025,9.3323,0.1097,0.0554,-0.0221
41.08,0.7817,-0.7478,9.6541,0.0775,0.0739,0.0537
41.1,0.9372,-0.776,9.3694,0.0331,0.0081,0.0904
41.12,0.6291,-0.6156,9.567,-0.0568,-0.0314,0.135
41.14,0.4101,-0.7401,9.532,-0.2019,-0.1443,0.1495
41.16,0.3321,-0.8613,9.4587,-0.3559,-0.2122,0.1858
41.18,0.4143,-0.8513,9.557,-0.4266,-0.1609,0.2643
41.2,0.1106,-0.8089,9.9574,-0.4079,-0.0435,0.2695
41.22,0.0302,-1.0042,10.2344,-0.3339,0.0946,0.1922
41.24,0.1244,-0.9631,10.836,-0.1863,0.2176,0.0747
41.26,0.878,-0.9995,11.2277,0.0467,0.2608,0.0357
41.28,0.8948,-0.9396,10.6441,0.2186,0.1669,-0.1038
41.3,1.5337,-0.7366,10.4959,0.4211,0.0951,-0.187
41.32,1.5681,-0.7093,9.9231,0.4813,-0.1436,-0.2274
41.34,1.1537,-0.7437,9.6288,0.4412,-0.2062,-0.2327
41.36,1.0302,-0.855,9.5989,0.3395,-0.1939,-0.2378
41.38,0.5451,-0.7569,9.2873,0.1593,-0.1895,-0.1975
41.4,1.0574,-0.8016,9.8149,0.1061,-0.0162,-0.0696
41.42,0.7714,-0.8028,9.2961,-0.0545,0.0626,-0.0818
41.44,0.7103,-0.8738,9.4975,-0.1115,0.0729,-0.0009
41.46,0.6025,-0.614,9.6767,-0.14,0.0369,0.0119
41.48,0.7033,-0.7868,9.8872,-0.0985,0.0311,0.0225
41.5,0.7029,-0.5567,9.8667,-0.0395,0.0014,0.0343
41.52,0.7527,-0.686,10.0674,-0.0505,0.037,0.0546
41.54,0.7695,-0.5321,10.0859,0.017,-0.0173,0.0273
41.56,0.9092,-1.0269,9.8774,-0.0109,-0.011,0.0428
41.58,0.7973,-0.777,9.7947,0.0117,-0.0232,0.0208
41.6,0.5391,-1.1385,9.6594,-0.043,-0.0337,-0.0208
41.62,0.4922,-0.7513,9.77,0.0244,-0.0056,0.0135
41.64,0.7433,-0.7461,9.9487,-0.0074,0.0158,0.018
41.66,0.9672,-0.6256,10.1371,0.0469,0.0531,0.0169
41.68,0.5978,-1.0821,9.6629,0.0417,-0.0113,0.0043
41.7,0.9777,-0.8024,10.0238,0.0491,0.0281,-0.0163
41.72,0.3801,-1.094,9.5721,-0.0037,-0.0679,0.0271
41.74,0.6971,-0.8526,9.9336,0.0816,0.0027,0.041
41.76,0.9764,-0.7783,9.7735,0.1176,0.0088,0.0474
41.78,0.5056,-0.8775,9.3528,0.1089,0.04,0.0043
41.8,0.8578,-0.9145,9.5532,0.1671,0.1147,0.059
41.82,0.5168,-1.1902,9.3666,0.0854,0.0465,-0.0408
41.84,0.3592,-0.9673,9.0325,0.0244,-0.0638,-0.1078
41.86,0.5709,-1.0418,9.3169,-0.1483,-0.123,-0.1328
41.88,0.2143,-1.0555,9.1296,-0.2545,-0.2127,-0.2318
41.9,0.0965,-0.8557,9.0853,-0.4258,-0.1863,-0.2114
41.92,-0.0771,-0.7181,9.2025,-0.4769,-0.1343,-0.2106
41.94,-0.09,-0.9938,9.6141,-0.4681,-0.0451,-0.2183
41.96,-0.0032,-0.2304,10.5096,-0.3388,0.1314,-0.1355
41.98,-0.0133,-0.7386,10.6359,-0.1108,0.2594,-0.1063
42.0,0.9195,-0.6017,11.0149,0.1106,0.2867,0.0305
42.02,0.8269,-0.8438,10.2716,0.3349,0.1742,0.0995
42.04,1.2909,-0.8192,9.6594,0.4611,0.0147,0.1891
42.06,0.9754,-0.7543,9.3729,0.5,-0.1733,0.2296
42.08,0.8471,-0.8318,9.1852,0.4682,-0.2153,0.2473
42.1,0.7089,-0.899,8.9428,0.3168,-0.2268,0.17
42.12,0.6487,-0.8425,9.3395,0.1866,-0.1179,0.152
42.14,0.4099,-1.0923,9.0951,0.0097,0.019,0.1015
42.16,0.4229,-1.0947,9.3182,-0.0762,0.0682,0.0568
42.18,0.2605,-1.0642,9.3374,-0.1334,0.049,0.0086
42.2,0.6297,-0.8683,9.5585,-0.1012,0.0889,-0.0087
42.22,0.2757,-1.1354,9.3139,-0.0967,0.0128,-0.0571
42.24,0.2859,-1.146,9.4157,-0.0791,0.0245,-0.039
42.26,0.2194,-0.9994,9.3336,-0.0433,-0.0156,-0.043
42.28,0.3954,-0.8442,9.7028,-0.0009,-0.0393,-0.0091
42.3,0.4143,-1.0019,9.6281,-0.0079,-0.0448,-0.007
42.32,0.5191,-0.8198,9.7154,0.0151,-0.0021,-0.0152
42.34,0.589,-0.8927,9.747,-0.0107,0.0112,-0.0201
42.36,0.409,-0.9517,9.7867,0.0008,0.0175,-0.0043
42.38,0.557,-0.8437,9.8534,-0.0225,-0.0447,-0.0316
42.4,0.502,-1.0103,9.7949,-0.0061,-0.04,0.0161
42.42,0.538,-0.9609,9.8663,0.034,-0.0374,-0.0372
42.44,0.6766,-0.8128,9.8067,0.037,-0.0312,-0.0388
42.46,0.5227,-1.126,9.3681,0.0847,0.0008,-0.0918
42.48,0.8132,-0.7693,9.4166,0.1231,0.0213,-0.0341
42.5,0.5531,-0.857,9.4022,0.1662,0.0897,-0.0217
42.52,0.8109,-0.8217,9.553,0.1385,0.0526,0.0253
42.54,0.8029,-0.6867,9.8356,0.0738,0.0703,0.0643
42.56,0.6727,-0.7857,9.4703,-0.0283,-0.0593,0.1263
42.58,0.1766,-0.8237,9.3389,-0.2295,-0.1589,0.1371
42.6,0.4245,-0.8133,9.2476,-0.3504,-0.2243,0.2269
42.62,0.2325,-0.8754,9.454,-0.4825,-0.2136,0.2798
42.64,0.0236,-0.9616,9.5293,-0.5031,-0.1069,0.2284
42.66,0.327,-0.8486,10.545,-0.4334,0.071,0.1983
42.68,0.1614,-1.1345,10.9241,-0.2317,0.2121,0.1372
42.7,0.8249,-0.8463,11.5711,-0.004,0.2884,0.0007
42.72,1.1963,-1.1118,11.2303,0.1927,0.2358,-0.0989
42.74,1.2277,-1.0509,10.389,0.4304,0.1174,-0.1755
42.76,1.4332,-0.7537,9.8784,0.5151,-0.0619,-0.1958
42.78,1.2711,-0.8568,9.2372,0.4959,-0.1997,-0.2824
42.8,0.8626,-0.7918,9.4507,0.3818,-0.2396,-0.2494
42.82,0.8886,-0.6907,9.5978,0.2682,-0.1989,-0.2016
42.84,0.8261,-0.6777,9.7067,0.0967,-0.0604,-0.1215
42.86,0.9369,-0.6198,9.8274,-0.01,0.0327,-0.0766
42.88,0.6411,-0.5768,9.854,-0.0738,0.0696,-0.0167
42.9,0.7208,-0.5909,9.9608,-0.0894,0.115,0.0104
42.92,0.5638,-0.6362,9.5655,-0.1336,0.0891,0.0015
42.94,0.6996,-0.802,9.877,-0.0963,0.0181,0.0235
42.96,0.6069,-0.6626,9.9933,-0.0495,0.005,0.0577
42.98,0.304,-0.8883,9.8681,-0.01,-0.0273,-0.0225
43.0,0.7928,-0.7406,9.9115,0.0361,0.0304,0.0123
43.02,0.8825,-0.8574,10.1163,0.0255,0.0136,0.0041
43.04,0.9673,-0.8301,10.1484,0.0128,0.0081,0.0096
43.06,0.6621,-0.7937,9.9922,0.0422,0.013,0.0265
43.08,0.5236,-0.922,9.6333,-0.0052,-0.0287,0.01
43.1,0.5896,-0.8602,9.6168,-0.03,-0.0037,-0.0341
43.12,0.6871,-0.6472,9.7807,0.0366,-0.0129,-0.0084
43.14,0.7087,-0.9345,9.7382,-0.0203,-0.0029,0.0373
43.16,0.5422,-0.7544,9.8027,0.012,-0.0307,0.0451
43.18,0.7861,-0.9578,9.6639,-0.0106,-0.0445,-0.0148
43.2,0.6955,-0.6757,10.0186,0.0621,-0.0134,0.0542
43.22,0.494,-1.0405,9.4259,0.0356,0.0163,-0.0024
43.24,0.7785,-0.8373,9.5727,0.0762,-0.0369,0.0295
43.26,1.0638,-0.9017,9.79,0.1391,0.0468,0.0991
43.28,0.5994,-1.0415,9.6332,0.1666,0.0614,0.0475
43.3,0.5243,-1.0356,9.3375,0.1343,0.0784,0.0116
43.32,0.7359,-1.1627,9.4081,0.124,0.0825,0.003
43.34,0.6056,-1.1116,9.2915,0.0771,0.0819,-0.0856
43.36,0.4414,-1.2562,9.1783,-0.0716,-0.0378,-0.1161
43.38,0.1363,-0.9859,9.2299,-0.1898,-0.1468,-0.1451
43.4,0.2106,-1.0491,9.1148,-0.2985,-0.2306,-0.2219
43.42,-0.0447,-0.9612,9.1404,-0.4837,-0.2027,-0.2212
43.44,-0.1735,-0.9108,9.2019,-0.495,-0.1007,-0.2549
43.46,0.1449,-0.631,10.1172,-0.384,0.0773,-0.1966
43.48,-0.3189,-0.9024,10.1218,-0.2584,0.1633,-0.1485
43.5,0.1896,-0.8996,10.9599,-0.0211,0.2341,-0.0208
43.52,0.9716,-0.7333,10.9567,0.2356,0.2236,0.1079
43.54,1.0359,-0.9476,9.9266,0.3712,0.1265,0.1843
43.56,0.9664,-0.5594,9.6202,0.4831,-0.0386,0.2315
43.58,0.9045,-0.696,9.3481,0.4528,-0.1607,0.2285
43.6,0.8047,-0.9499,9.1593,0.3791,-0.2055,0.2371
43.62,0.686,-1.1452,9.1127,0.2738,-0.1729,0.2233
43.64,0.3474,-1.2607,8.9856,0.0791,-0.1095,0.0954
43.66,0.6343,-0.957,9.392,-0.0168,0.0155,0.0867
43.68,0.4805,-0.8954,9.364,-0.08,0.0665,0.007
43.7,0.3795,-0.9116,9.6129,-0.0767,0.1114,0.0009
43.72,0.5702,-0.7049,9.9599,-0.0805,0.1038,-0.0509
43.74,0.6709,-0.6778,10.0811,-0.0492,0.0486,-0.0151
43.76,0.5975,-0.5811,10.0972,0.023,0.0141,-0.0289
43.78,0.6189,-0.8634,9.9119,-0.0062,-0.0076,-0.0165
43.8,1.083,-0.3007,10.4825,0.0323,-0.0357,0.0155
43.82,1.3222,-0.5988,10.4147,0.1188,0.0111,-0.0048
43.84,0.9351,-0.5549,10.1564,0.1013,0.0667,0.0307
43.86,0.3871,-1.0938,9.5228,-0.0449,-0.016,0.0302
43.88,0.9917,-0.5633,10.3769,0.0502,0.0326,0.0272
43.9,0.5597,-0.8241,9.6353,-0.028,-0.0092,-0.0527
43.92,0.3614,-0.559,9.7476,-0.0207,-0.0018,0.0057
43.94,0.437,-1.2217,9.4489,-0.0193,-0.0043,-0.0133
43.96,0.3848,-0.9097,9.5951,-0.0179,-0.0023,-0.0043
43.98,0.035,-0.9262,9.1876,-0.0576,-0.0372,-0.0301
44.0,0.5671,-0.7645,9.6555,0.0243,0.0036,-0.0367
44.02,0.7641,-0.5814,9.925,0.0277,-0.0267,-0.0315
44.04,0.6803,-0.9612,9.6052,0.0139,-0.0176,-0.0527
44.06,0.373,-0.9466,9.5497,0.0815,0.0049,-0.0279
44.08,0.9161,-0.6482,9.9185,0.1157,0.0533,-0.0236
44.1,0.7848,-0.6926,9.7635,0.1583,0.0936,-0.0381
44.12,0.7614,-0.7406,9.6576,0.1126,0.0922,0.0215
44.14,0.2822,-0.9451,9.0694,0.0326,0.0431,0.0488
44.16,0.6494,-0.7879,9.666,-0.0373,0.01,0.1078
44.18,0.2279,-0.8025,9.2974,-0.2254,-0.1677,0.1633
44.2,-0.0734,-0.8715,9.1996,-0.3396,-0.2132,0.248
44.22,0.6744,-0.4513,10.1868,-0.4242,-0.1695,0.2821
44.24,0.3101,-0.5819,10.0705,-0.5248,-0.1136,0.2826
44.26,0.5164,-0.8351,10.5152,-0.415,0.0327,0.2175
44.28,0.5688,-0.9386,11.3571,-0.2912,0.2481,0.1499
44.3,0.5464,-0.8482,11.6084,-0.0066,0.3415,0.0426
44.32,0.7348,-1.1102,10.8092,0.1362,0.252,-0.0937
44.34,1.4725,-0.9069,10.6839,0.3793,0.1426,-0.136
44.36,1.2943,-0.9821,9.7631,0.5197,-0.0233,-0.2649
44.38,1.2126,-0.727,9.6979,0.5175,-0.135,-0.2714
44.4,0.9647,-0.8033,9.1141,0.4138,-0.247,-0.2352
44.42,0.7137,-1.066,9.1275,0.2403,-0.2079,-0.2129
44.44,1.1379,-0.382,9.8185,0.1935,-0.0968,-0.2006
44.46,0.2117,-1.2417,9.0882,-0.0807,-0.0299,-0.0921
44.48,0.4968,-0.798,9.6111,-0.1239,0.0503,-0.0458
44.5,0.7754,-0.3162,9.7826,-0.0932,0.112,0.0241
44.52,0.7157,-0.6049,10.0287,-0.0646,0.0587,0.0322
44.54,0.7099,-0.6937,9.7415,-0.1012,-0.0044,0.0271
44.56,0.3765,-0.8684,9.7757,-0.0965,0.0211,0.031
44.58,0.1339,-0.8132,9.714,-0.0212,-0.0498,0.0378
44.6,0.5488,-0.9535,9.8819,-0.0484,0.0088,0.0372
44.62,0.4794,-0.7575,9.6256,-0.0361,-0.0277,0.0274
44.64,0.5245,-0.8182,10.0585,0.0253,-0.0096,0.0265
44.66,0.6331,-0.8776,9.7647,0.0226,-0.0217,0.0008
44.68,0.3836,-0.7947,9.6518,0.0259,-0.0404,0.0054
44.7,0.7172,-0.9263,9.9392,0.0852,-0.0284,0.0529
44.72,0.4615,-1.1405,9.4264,0.0632,-0.0343,0.028
44.74,0.6745,-1.0199,9.292,0.1003,0.0688,0.049
44.76,0.6487,-1.0404,9.4821,0.1937,0.0967,0.0429
44.78,0.3512,-1.2579,9.1823,0.161,0.0948,-0.0308
44.8,0.5285,-1.2046,9.2907,0.0621,0.0582,-0.0781
44.82,0.4631,-1.0063,9.1673,-0.0608,-0.0497,-0.1436
44.84,0.1297,-0.9488,9.0907,-0.248,-0.196,-0.2086
44.86,0.2648,-1.0691,9.1264,-0.4122,-0.2038,-0.2779
44.88,-0.1833,-1.1866,8.9588,-0.5827,-0.2601,-0.2993
44.9,-0.2798,-0.7912,9.3893,-0.5873,-0.1248,-0.3001
44.92,-0.16,-0.6161,10.0128,-0.5572,0.0381,-0.2315
44.94,-0.5209,-0.6783,10.4847,-0.3278,0.2555,-0.1487
44.96,0.1283,-0.7206,11.1232,-0.0562,0.3192,-0.0236
44.98,0.9449,-0.7932,11.017,0.214,0.2908,0.1277
45.0,1.0999,-0.749,10.1201,0.4833,0.1328,0.1934
45.02,1.2733,-0.9112,9.4913,0.6394,-0.0244,0.276
45.04,1.27,-1.0628,9.165,0.5947,-0.1509,0.3058
45.06,0.7062,-0.8142,8.9136,0.4753,-0.2769,0.2936
45.08,0.6625,-0.9416,9.1501,0.3497,-0.1922,0.2162
45.1,0.542,-1.1393,8.9994,0.1215,-0.07,0.1595
45.12,0.3683,-1.1458,8.9504,-0.0517,-0.0079,0.1022
45.14,0.3628,-1.2664,9.3182,-0.1257,0.0759,0.0253
45.16,0.345,-0.8564,9.6111,-0.132,0.0999,-0.0132
45.18,0.2903,-0.9331,9.4322,-0.1211,0.0753,-0.0236
45.2,0.0586,-1.0029,9.49,-0.1096,0.0475,-0.0901
45.22,0.3105,-1.0424,9.6644,-0.072,-0.0187,-0.0293
45.24,0.6202,-1.0694,9.8235,-0.0168,0.0052,-0.0123
45.26,0.5905,-0.653,10.0219,-0.0103,-0.0311,0.0125
45.28,0.4648,-1.0478,9.8775,0.0047,-0.0001,-0.0265
45.3,0.5312,-0.809,9.789,0.0732,-0.0003,0.013
45.32,0.736,-0.8072,9.7418,-0.001,-0.0083,-0.0148
45.34,0.2257,-1.2465,9.3107,-0.0126,-0.0261,-0.0143
45.36,0.592,-0.8714,9.687,0.0293,-0.009,0.0071
45.38,0.6079,-0.8267,9.5974,-0.0174,-0.0063,0.0262
45.4,0.6052,-0.8487,9.9864,-0.0019,0.0027,0.0291
45.42,0.574,-0.6754,9.9463,-0.0088,0.0237,0.0413
45.44,0.6815,-0.7432,9.8936,0.0196,-0.0011,0.0024
45.46,0.7892,-1.0371,9.7006,-0.0567,0.0062,-0.0059
45.48,0.3915,-0.7754,9.7592,-0.0114,-0.0089,0.0312
45.5,0.6651,-0.6796,9.9781,0.0329,0.0432,0.0073
45.52,0.6941,-0.6401,9.9253,0.0305,0.0142,0.0519
45.54,0.8453,-0.7038,10.0039,0.0045,0.0129,-0.0209
45.56,0.511,-0.901,9.7497,-0.0044,-0.0149,-0.0168
45.58,0.683,-0.9963,9.872,-0.0081,0.0193,0.0076
45.6,0.5311,-0.9708,9.6407,-0.0209,-0.0345,-0.0453
45.62,0.899,-0.7109,10.0128,0.0219,-0.0072,0.0296
45.64,0.5109,-0.891,9.625,-0.0212,-0.0194,-0.0117
45.66,0.4942,-0.8596,9.7938,-0.0079,-0.0109,-0.0064
45.68,0.5284,-0.8301,10.0044,-0.0307,-0.0377,-0.0233
45.7,0.7936,-0.8042,9.9759,0.0196,0.0022,0.0001
45.72,0.5901,-0.871,9.9009,-0.0058,-0.0113,-0.0125
45.74,0.7726,-0.7238,10.1847,0.0432,0.0313,0.0082
45.76,0.8433,-0.8114,9.9336,0.0071,0.0122,-0.0166
45.78,0.5922,-0.8233,9.8738,0.0206,-0.0023,-0.014
45.8,0.72,-0.6875,10.0707,0.0235,0.0564,0.0114
45.82,0.8212,-0.7815,10.083,0.0391,0.0633,0.0161
45.84,0.5481,-0.8333,9.7889,-0.0079,-0.0055,0.001
45.86,0.8644,-0.8006,10.0635,0.0087,0.0422,0.0098
45.88,0.677,-0.7897,9.855,0.0014,-0.0072,0.0044
45.9,0.5265,-0.8141,9.7907,-0.0116,-0.0044,-0.0008
45.92,0.6631,-0.737,9.9094,0.0046,0.0033,0.009
45.94,0.6569,-0.7233,9.9755,0.0157,0.0323,0.0008
45.96,0.638,-0.7168,9.7439,-0.0266,-0.0009,0.0132
45.98,0.6639,-0.9451,9.6724,-0.012,-0.0065,-0.0064
46.0,0.648,-0.8717,9.6527,0.0246,0.0079,-0.006
46.02,0.5604,-0.7969,9.7128,-0.0277,0.0053,0.0072
46.04,0.7962,-0.8037,10.1224,0.0356,0.0141,0.0341
46.06,0.7938,-0.7822,9.8507,0.0148,0.0164,0.0053
46.08,0.7734,-0.6885,9.8334,0.0138,-0.0022,0.0097
46.1,0.6119,-0.755,9.7628,0.0115,0.0131,0.0034
46.12,0.6645,-0.8458,9.6897,-0.0022,0.0025,-0.0048
46.14,0.6021,-0.8622,9.8601,0.0068,0.0069,0.0001
46.16,0.6727,-0.8181,9.7112,0.0069,0.0065,0.0099
46.18,0.5289,-0.8447,9.7681,0.0095,-0.004,0.0053
46.2,0.5168,-0.9166,9.767,0.0013,-0.0059,0.0037
46.22,0.6076,-0.8974,9.8856,0.0192,0.0175,0.0041
46.24,0.5924,-0.8512,9.7003,-0.0014,0.0027,-0.0041
46.26,0.5848,-0.8781,9.7117,0.0016,0.0081,0.0035
46.28,0.5606,-0.875,9.6815,-0.008,-0.0045,-0.0023
46.3,0.569,-0.8996,9.6114,-0.0103,-0.012,-0.0098
46.32,0.7497,-0.7529,9.9217,0.0257,0.0191,0.0112
46.34,0.5953,-0.9068,9.6109,-0.01,-0.0052,-0.0076
46.36,0.797,-0.7616,9.7999,0.0089,0.0121,0.0045
46.38,0.5459,-0.8942,9.7124,0.001,0.0027,0.0009
46.4,0.4557,-0.9205,9.6868,-0.0068,-0.0056,-0.0055
46.42,0.5945,-0.7669,9.7131,0.0037,0.0046,0.0018
46.44,0.6099,-0.7991,9.7763,-0.001,-0.0016,-0.0008
46.46,0.487,-0.8947,9.6589,-0.0046,-0.0034,-0.0024
46.48,0.8759,-0.7528,9.9271,0.0292,0.0219,0.0146
46.5,0.5666,-0.9481,9.6373,-0.0102,-0.0077,-0.0051
46.52,0.4673,-0.9174,9.613,-0.016,-0.012,-0.008
46.54,0.5122,-0.829,9.6858,-0.0132,-0.0099,-0.0066
46.56,0.4423,-1.0214,9.6417,-0.0178,-0.0133,-0.0089
46.58,0.7125,-0.8199,9.8033,0.0094,0.007,0.0047
46.6,0.6188,-0.8745,9.7158,-0.0088,-0.0066,-0.0044
46.62,0.7586,-0.7813,9.8625,0.0132,0.0099,0.0066
46.64,0.6462,-0.8543,9.6356,-0.0054,-0.0041,-0.0027
46.66,0.5763,-0.8465,9.6671,-0.0081,-0.0061,-0.0041
46.68,0.6688,-0.7749,9.7654,0.0109,0.0082,0.0054
46.7,0.6591,-0.8341,9.7649,0.0088,0.0066,0.0044
46.72,0.4693,-0.7707,9.6143,-0.0129,-0.0096,-0.0064
46.74,0.669,-0.8908,9.7362,-0.0056,-0.0042,-0.0028
46.76,0.3804,-0.9299,9.5493,-0.0344,-0.0258,-0.0172
46.78,0.5739,-0.9363,9.5671,-0.0201,-0.0151,-0.0101
46.8,0.6071,-0.8627,9.697,-0.0014,-0.0011,-0.0007
46.82,0.6541,-0.8369,9.8194,0.0113,0.0084,0.0056
46.84,0.476,-0.907,9.7036,-0.004,-0.003,-0.002
46.86,0.5776,-0.8843,9.7618,-0.0016,-0.0012,-0.0008
46.88,0.6076,-0.8295,9.8483,0.0113,0.0085,0.0057
46.9,0.4851,-0.9428,9.4729,-0.0313,-0.0234,-0.0156
46.92,0.6265,-0.8324,9.7973,0.0053,0.004,0.0027
46.94,0.5342,-0.8608,9.6642,-0.0139,-0.0104,-0.0069
46.96,0.5612,-0.8951,9.6683,-0.0031,-0.0023,-0.0016
46.98,0.5999,-0.8471,9.7759,-0.0015,-0.0011,-0.0008
47.0,0.3967,-0.9164,9.4782,-0.0425,-0.0319,-0.0212
47.02,0.7194,-0.8514,9.7899,0.012,0.009,0.006
47.04,0.4944,-0.8877,9.6975,-0.0106,-0.0079,-0.0053
47.06,0.5751,-0.8489,9.7104,-0.0034,-0.0026,-0.0017
47.08,0.6366,-0.8802,9.867,0.0125,0.0094,0.0063
47.1,0.688,-0.8453,9.9415,0.0226,0.017,0.0113
47.12,0.5541,-0.8137,9.7497,0.002,0.0015,0.001
47.14,0.6341,-0.9019,9.7211,-0.0131,-0.0098,-0.0065
47.16,0.7643,-0.8136,9.9902,0.0258,0.0193,0.0129
47.18,0.7055,-0.8392,9.8916,0.0175,0.0131,0.0087
47.2,0.5424,-0.7953,9.6298,-0.0125,-0.0094,-0.0062
47.22,0.6098,-0.7706,9.7504,0.0019,0.0014,0.0009
47.24,0.5924,-0.8946,9.6874,-0.0125,-0.0093,-0.0062
47.26,0.6358,-0.7229,9.8769,0.0238,0.0178,0.0119
47.28,0.7366,-0.8053,9.8222,0.0105,0.0079,0.0052
47.3,0.4739,-0.9464,9.5194,-0.0248,-0.0186,-0.0124
47.32,0.6576,-0.9114,9.8168,0.006,0.0045,0.003
47.34,0.5848,-0.7375,9.8761,0.014,0.0105,0.007
47.36,0.669,-0.8632,9.8108,0.0037,0.0028,0.0019
47.38,0.452,-0.9227,9.682,-0.0148,-0.0111,-0.0074
47.4,0.6137,-0.8303,9.6649,0.0008,0.0006,0.0004
47.42,0.6614,-0.9362,9.7389,0.0023,0.0017,0.0012
47.44,0.6169,-0.9582,9.7915,-0.0058,-0.0043,-0.0029
47.46,0.649,-0.828,9.7296,0.0024,0.0018,0.0012
47.48,0.6426,-0.9078,9.7485,0.0063,0.0047,0.0031
47.5,0.6365,-0.8355,9.6887,-0.0062,-0.0047,-0.0031
47.52,0.5367,-0.9285,9.5859,-0.0186,-0.0139,-0.0093
47.54,0.6301,-0.8609,9.704,-0.0028,-0.0021,-0.0014
47.56,0.7336,-0.7241,9.8791,0.0181,0.0136,0.0091
47.58,0.583,-0.8348,9.7156,0.002,0.0015,0.001
47.6,0.5557,-0.7808,9.7875,0.0094,0.007,0.0047
47.62,0.643,-0.8727,9.8563,0.0183,0.0138,0.0092
47.64,0.6909,-0.8572,9.8061,0.0063,0.0047,0.0031
47.66,0.6967,-0.8434,9.7747,0.0007,0.0005,0.0003
47.68,0.5243,-0.9662,9.5698,-0.023,-0.0172,-0.0115
47.7,0.612,-0.8113,9.8069,0.0034,0.0025,0.0017
47.72,0.6748,-0.8064,9.8155,0.0158,0.0118,0.0079
47.74,0.5669,-0.8819,9.6912,-0.0021,-0.0016,-0.001
47.76,0.8005,-0.8025,9.7979,0.0162,0.0122,0.0081
47.78,0.7391,-0.9107,9.8988,0.0236,0.0177,0.0118
47.8,0.7296,-0.8063,9.8306,0.008,0.006,0.004
47.82,0.6101,-0.879,9.6636,-0.0069,-0.0052,-0.0035
47.84,0.814,-0.7762,9.9314,0.0333,0.025,0.0166
47.86,0.8977,-0.749,10.0451,0.0396,0.0297,0.0198
47.88,0.5506,-0.9416,9.6318,-0.0164,-0.0123,-0.0082
47.9,0.5716,-0.9057,9.7569,-0.0006,-0.0005,-0.0003
47.92,0.538,-0.8808,9.5987,-0.0144,-0.0108,-0.0072
47.94,0.6096,-0.874,9.6464,-0.0095,-0.0072,-0.0048
47.96,0.8099,-0.715,9.9576,0.0353,0.0265,0.0177
47.98,0.7678,-0.7904,9.8637,0.0229,0.0172,0.0114
