time_s,acc_x,acc_y,acc_z,gyro_x,gyro_y,gyro_z
0.0,1.4116,-3.2773,8.777,0.0074,0.0055,0.0037
0.02,1.3315,-3.3729,8.9162,0.0148,0.0111,0.0074
0.04,1.5726,-3.2646,9.2368,0.0509,0.0382,0.0255
0.06,1.2172,-3.4522,8.7022,-0.0042,-0.0032,-0.0021
0.08,1.2694,-3.5392,8.6663,-0.0161,-0.0121,-0.0081
0.1,1.4274,-3.5754,8.8463,0.0026,0.0019,0.0013
0.12,1.3248,-3.4398,8.716,-0.008,-0.006,-0.004
0.14,1.3119,-3.5565,8.7543,-0.0081,-0.0061,-0.004
0.16,1.2993,-3.3912,8.7552,-0.0033,-0.0025,-0.0017
0.18,1.1582,-3.5578,8.6813,-0.0249,-0.0187,-0.0124
0.2,1.0145,-3.7549,8.4281,-0.0401,-0.0301,-0.02
0.22,1.2733,-3.4682,8.7742,-0.0048,-0.0036,-0.0024
0.24,1.309,-3.449,8.7183,-0.0064,-0.0048,-0.0032
0.26,1.4447,-3.4263,8.9701,0.0135,0.0101,0.0067
0.28,1.5392,-3.4229,9.0262,0.0228,0.0171,0.0114
0.3,1.3562,-3.4413,8.8846,0.0061,0.0046,0.0031
0.32,1.4026,-3.5066,8.8612,0.0007,0.0005,0.0003
0.34,1.2225,-3.5853,8.6601,-0.0226,-0.017,-0.0113
0.36,1.3585,-3.5287,8.7488,-0.0141,-0.0106,-0.007
0.38,1.3246,-3.497,8.7424,-0.002,-0.0015,-0.001
0.4,1.3002,-3.4141,8.8773,0.0002,0.0002,0.0001
0.42,1.4761,-3.4734,8.9006,0.0164,0.0123,0.0082
0.44,1.2862,-3.38,8.8621,0.0094,0.0071,0.0047
0.46,1.4031,-3.3555,9.0318,0.0166,0.0125,0.0083
0.48,1.1622,-3.4395,8.5933,-0.0153,-0.0115,-0.0077
0.5,1.3396,-3.5913,8.749,-0.0055,-0.0042,-0.0028
0.52,1.382,-3.3886,8.8468,-0.003,-0.0023,-0.0015
0.54,1.5089,-3.4537,8.9185,0.018,0.0135,0.009
0.56,1.2869,-3.4171,8.8981,0.0096,0.0072,0.0048
0.58,1.1917,-3.5266,8.7633,0.0003,0.0002,0.0002
0.6,1.3173,-3.5292,8.9247,0.0147,0.0111,0.0074
0.62,1.1621,-3.5073,8.8104,-0.0107,-0.008,-0.0053
0.64,1.2896,-3.4089,8.8777,0.001,0.0008,0.0005
0.66,1.3038,-3.5497,8.752,-0.0117,-0.0088,-0.0059
0.68,1.3885,-3.443,8.9597,0.0166,0.0125,0.0083
0.7,1.4258,-3.4132,8.837,0.001,0.0008,0.0005
0.72,1.1781,-3.4769,8.763,-0.0106,-0.0079,-0.0053
0.74,1.3051,-3.3309,8.8011,-0.0033,-0.0025,-0.0016
0.76,1.2577,-3.5028,8.6746,-0.0067,-0.005,-0.0034
0.78,1.3905,-3.4763,8.8558,0.0115,0.0086,0.0058
0.8,1.2606,-3.4623,8.6817,-0.0054,-0.0041,-0.0027
0.82,1.1075,-3.6133,8.6016,-0.0247,-0.0185,-0.0123
0.84,1.2676,-3.5114,8.8096,-0.0038,-0.0029,-0.0019
0.86,1.2031,-3.525,8.6969,-0.0132,-0.0099,-0.0066
0.88,1.311,-3.3958,8.7844,0.0053,0.004,0.0027
0.9,1.4659,-3.4178,8.8191,0.014,0.0105,0.007
0.92,1.1695,-3.5517,8.6891,-0.0077,-0.0058,-0.0039
0.94,1.3846,-3.516,8.8107,0.0073,0.0055,0.0037
0.96,1.2092,-3.4908,8.7395,-0.0121,-0.0091,-0.006
0.98,1.3571,-3.3931,8.8789,0.0212,0.0159,0.0106
1.0,1.3987,-3.4818,8.8943,0.0082,0.0062,0.0041
1.02,1.3389,-3.3662,8.6665,-0.0037,-0.0028,-0.0018
1.04,0.9982,-3.7038,8.3959,-0.043,-0.0322,-0.0215
1.06,1.3368,-3.4595,8.9925,0.0169,0.0126,0.0084
1.08,1.4354,-3.4132,8.9791,0.0225,0.0168,0.0112
1.1,1.1818,-3.4992,8.672,-0.022,-0.0165,-0.011
1.12,1.3117,-3.4279,8.8494,0.0036,0.0027,0.0018
1.14,1.3,-3.5314,8.9775,0.0117,0.0088,0.0059
1.16,1.3823,-3.4306,8.9392,0.0164,0.0123,0.0082
1.18,1.3554,-3.4983,8.9233,0.0188,0.0141,0.0089
1.2,1.2754,-3.4731,8.7186,-0.0136,-0.0111,-0.0072
1.22,1.0789,-3.6544,8.4753,-0.0372,-0.0259,-0.0173
1.24,1.1992,-3.4732,8.7394,-0.0107,-0.0062,-0.0063
1.26,1.3346,-3.3689,8.7939,-0.0132,-0.0087,-0.0065
1.28,1.2093,-3.4555,8.8571,0.0056,0.0039,0.0007
1.3,1.5125,-3.4545,9.0106,0.0285,0.0204,0.0146
1.32,1.3253,-3.5885,8.8717,0.0058,0.0019,0.001
1.34,1.1906,-3.6181,8.7396,-0.0165,-0.0076,-0.0003
1.36,1.296,-3.5264,8.8595,0.008,0.0046,0.0066
1.38,1.3161,-3.4402,8.7937,0.0022,0.004,0.006
1.4,1.3564,-3.4491,8.9708,0.006,0.0079,0.0037
1.42,1.3953,-3.3551,9.0357,0.0233,0.0031,0.0085
1.44,1.171,-3.4094,8.7375,-0.0028,-0.0073,-0.0007
1.46,1.426,-3.4616,8.8044,0.0126,0.0137,0.0138
1.48,1.4443,-3.3698,9.0025,0.0227,0.0317,0.0163
1.5,1.3527,-3.3603,8.9803,0.0175,0.0154,0.0039
1.52,1.3522,-3.512,8.763,-0.0103,-0.0094,-0.0029
1.54,1.453,-3.319,8.8272,0.0094,0.0164,0.0078
1.56,1.1927,-3.6204,8.5798,-0.0114,0.0022,-0.0065
1.58,1.204,-3.5623,8.7022,-0.0111,0.017,0.0107
1.6,1.1172,-3.4678,8.6302,-0.0223,-0.0131,-0.0135
1.62,1.5029,-3.6164,9.085,0.0224,0.0223,0.0254
1.64,1.1493,-3.4109,8.7861,-0.0012,-0.0081,-0.0226
1.66,1.3801,-3.3039,8.8967,0.0092,0.0177,0.0172
1.68,1.2085,-3.5391,8.799,-0.0028,-0.0019,0.0021
1.7,1.2481,-3.4438,8.8177,-0.0085,0.0079,-0.0004
1.72,1.2009,-3.5036,8.9492,-0.0166,-0.0031,-0.0024
1.74,1.412,-3.4608,9.1073,-0.0043,0.0318,0.0266
1.76,1.2645,-3.4496,8.8606,0.0031,-0.0021,0.0175
1.78,1.267,-3.3593,8.8436,-0.0069,0.0104,0.0138
1.8,1.4331,-3.4513,8.9402,0.0037,0.015,0.0106
1.82,1.5186,-3.5228,9.0605,0.0402,-0.0068,0.0268
1.84,1.014,-3.5695,8.6867,-0.0191,-0.0125,-0.0211
1.86,1.2059,-3.32,8.9441,0.0243,0.0013,-0.0011
1.88,1.1886,-3.5324,8.8239,0.0052,0.0062,-0.0161
1.9,1.3064,-3.3965,8.8744,0.0052,-0.0125,0.0112
1.92,1.5006,-3.5137,8.9545,0.0495,0.0373,0.0138
1.94,1.2458,-3.44,8.4829,0.0587,0.0755,0.0483
1.96,1.47,-3.4588,8.7955,0.0715,0.1005,0.0137
1.98,1.1946,-3.7979,8.4825,0.0489,0.1063,-0.0208
2.0,1.2536,-3.4649,8.6187,0.0318,0.053,-0.0426
2.02,1.4021,-3.4773,8.4845,-0.0162,-0.0127,-0.0412
2.04,1.3445,-3.7039,8.1213,-0.1383,-0.17,-0.1052
2.06,1.1332,-3.5811,8.4971,-0.1633,-0.2916,-0.0804
2.08,1.2705,-3.7664,8.6342,-0.1815,-0.2183,-0.0611
2.1,0.7073,-3.4122,8.5284,-0.2559,-0.1225,-0.1082
2.12,0.7934,-3.3785,9.1587,-0.2597,0.0917,-0.0777
2.14,1.2174,-3.1976,10.1689,-0.1195,0.3234,-0.0486
2.16,1.2932,-3.5723,10.5275,-0.0495,0.434,-0.0028
2.18,1.5356,-3.3175,10.4074,0.1095,0.3449,0.0178
2.2,1.5267,-3.3018,9.2746,0.2312,0.2232,0.0738
2.22,1.7298,-3.5401,8.7752,0.2853,-0.0333,0.0704
2.24,1.858,-3.3878,8.647,0.2924,-0.22,0.1107
2.26,1.5742,-3.4536,8.3182,0.2502,-0.3038,0.1137
2.28,1.1715,-3.626,8.3142,0.1289,-0.2528,0.0608
2.3,1.2144,-3.4008,8.5952,0.064,-0.1153,0.0636
2.32,1.3068,-3.5591,8.5175,-0.0012,0.0761,0.0726
2.34,1.1587,-3.615,8.4499,-0.0262,0.129,0.0001
2.36,1.3669,-3.6322,8.3707,-0.068,0.1384,0.0033
2.38,0.9713,-3.4914,8.508,-0.1068,0.0575,-0.0414
2.4,1.1814,-3.4426,8.7916,-0.0242,0.035,0.0108
2.42,1.1209,-3.5886,8.9135,-0.0519,0.0073,-0.0274
2.44,0.8081,-3.4842,8.8274,-0.0447,-0.0448,-0.0379
2.46,1.4455,-3.5488,9.297,0.027,0.0229,-0.0226
2.48,1.4018,-3.5614,8.892,0.0287,-0.0069,0.0044
2.5,1.346,-3.5472,8.6998,-0.0108,-0.008,-0.0179
2.52,1.2332,-3.5291,8.8614,0.0173,-0.008,-0.0201
2.54,1.272,-3.6282,8.8343,-0.0166,0.0367,0.0074
2.56,1.4585,-3.3026,8.9548,0.012,0.0107,-0.0035
2.58,1.223,-3.4099,9.0248,0.0105,0.0114,-0.0115
2.6,1.2211,-3.6442,8.978,0.0271,-0.0713,0.0006
2.62,1.5122,-3.3664,9.1043,0.0749,0.0693,-0.0078
2.64,1.3252,-3.6308,8.845,0.0558,0.0418,-0.0053
2.66,1.4211,-3.3774,8.6516,0.0665,0.0948,-0.0369
2.68,1.5152,-3.4002,8.6014,0.066,0.0582,-0.0189
2.7,1.3748,-3.4198,8.6345,0.0526,0.1044,0.0221
2.72,1.1251,-3.2232,8.4265,0.0255,0.0618,0.0244
2.74,1.5421,-3.4931,8.3303,-0.0457,-0.0788,0.0678
2.76,1.343,-3.0284,8.3559,-0.0839,-0.1999,0.1181
2.78,1.0185,-3.4601,8.2673,-0.2128,-0.2937,0.1132
2.8,0.9369,-3.6541,8.3141,-0.2447,-0.2588,0.1095
2.82,0.9677,-3.7645,8.4366,-0.2967,-0.123,0.1056
2.84,0.8689,-3.7757,9.4843,-0.2146,0.131,0.0556
2.86,0.9555,-3.8685,10.0313,-0.1012,0.2786,0.0475
2.88,1.0276,-3.6762,10.548,-0.0264,0.4117,0.012
2.9,1.6406,-3.8698,10.2275,0.1608,0.3764,-0.0453
2.92,1.5877,-3.6099,9.3144,0.2297,0.1352,-0.0408
2.94,1.7663,-3.5864,8.5823,0.3127,-0.1128,-0.1173
2.96,1.5106,-3.6334,8.347,0.2793,-0.2784,-0.1422
2.98,1.4975,-3.6209,8.1354,0.223,-0.3022,-0.0711
3.0,1.3431,-3.5276,8.0945,0.1429,-0.2523,-0.1055
3.02,1.2991,-3.2643,8.6337,0.0659,-0.0502,-0.0801
3.04,1.0744,-3.283,8.4762,-0.0408,0.0235,-0.0455
3.06,1.1085,-3.4499,8.6606,-0.054,0.1181,-0.0216
3.08,1.5228,-3.33,8.8441,-0.0287,0.1205,0.0191
3.1,1.3281,-3.5138,8.7439,-0.0585,0.0673,0.003
3.12,1.318,-3.1177,8.8794,-0.0432,0.0523,0.014
3.14,1.2905,-3.4656,8.9149,-0.0427,-0.0194,-0.01
3.16,0.9736,-3.292,8.7711,-0.0152,-0.0453,0.0117
3.18,1.2545,-3.2503,8.9346,0.017,-0.0296,-0.0002
3.2,1.1506,-3.4527,8.8895,0.0345,0.0011,0.0158
3.22,1.2509,-3.5033,9.1517,-0.0156,0.0212,-0.0111
3.24,1.1932,-3.5549,8.5975,-0.0399,-0.0503,-0.0097
3.26,1.2995,-3.5668,9.0478,0.0008,-0.0191,-0.0059
3.28,1.3584,-3.5069,9.0264,0.0474,0.0213,0.0357
3.3,0.8746,-3.3814,8.8106,0.04,0.0329,0.0194
3.32,1.2785,-3.4454,8.538,0.0129,0.0447,-0.0143
3.34,1.6157,-3.5191,8.6099,0.0674,0.1143,0.0083
3.36,1.3636,-3.4233,8.5594,0.0748,0.1476,-0.0163
3.38,1.1569,-3.4878,8.5253,0.0409,0.0831,0.0019
3.4,1.2969,-3.6424,8.343,-0.0202,-0.0384,-0.0538
3.42,1.0051,-3.5245,8.2529,-0.0894,-0.1548,-0.0709
3.44,1.1726,-3.7122,8.2081,-0.1639,-0.2688,-0.1258
3.46,0.9182,-3.4535,8.0251,-0.2159,-0.3065,-0.0797
3.48,0.6951,-3.5814,8.2615,-0.2918,-0.2089,-0.1055
3.5,0.821,-3.4034,8.7076,-0.2163,-0.0231,-0.1063
3.52,0.7913,-3.4191,9.4789,-0.1576,0.2335,-0.061
3.54,1.295,-3.3339,10.2181,-0.0723,0.3409,-0.0031
3.56,1.3717,-3.3678,10.0968,0.0866,0.379,0.0473
3.58,1.7389,-3.2216,9.5905,0.1702,0.2417,0.069
3.6,1.6685,-3.4949,8.749,0.2405,0.0295,0.0696
3.62,1.8255,-3.1809,8.5265,0.3047,-0.1531,0.1204
3.64,1.6913,-3.7158,8.469,0.2508,-0.2797,0.0983
3.66,1.1372,-3.3012,8.0561,0.1226,-0.2641,0.0823
3.68,1.3034,-3.6825,8.1814,0.0524,-0.1725,0.0561
3.7,1.318,-3.5093,8.3217,0.0073,0.0033,0.0649
3.72,1.5002,-3.3985,8.5623,-0.027,0.1092,0.0474
3.74,1.2141,-3.9332,8.5808,-0.052,0.1135,-0.0267
3.76,1.0354,-3.5524,8.331,-0.027,0.0968,0.013
3.78,1.3536,-3.661,8.7686,-0.0335,0.0682,-0.0321
3.8,1.0335,-3.6702,8.8956,-0.0183,0.0353,0.0044
3.82,1.2406,-3.6631,8.8879,-0.0259,-0.0206,-0.0185
3.84,1.2278,-3.526,8.9509,0.0159,0.0366,-0.0143
3.86,1.245,-3.6041,8.8202,-0.0165,-0.0351,-0.0254
3.88,1.3352,-3.295,8.7455,-0.0043,-0.0057,-0.0194
3.9,1.0812,-3.5619,8.7877,-0.0064,-0.022,-0.0061
3.92,1.2162,-3.2618,8.8018,-0.0153,-0.0124,-0.0214
3.94,1.5614,-3.459,9.0963,0.0456,-0.0327,0.0035
3.96,0.9147,-3.6522,8.7562,0.0095,-0.0168,-0.0375
3.98,1.4328,-3.5361,8.6132,0.0641,0.0202,-0.0493
4.0,1.0251,-3.7775,8.5073,0.0116,0.0221,-0.0256
4.02,1.5059,-3.6536,8.7489,0.0713,0.112,-0.0071
4.04,1.5347,-3.3595,8.8398,0.1106,0.1434,-0.0182
4.06,1.5378,-3.339,8.6132,0.0235,0.1152,0.026
4.08,1.3332,-3.452,8.4045,-0.0204,-0.0068,0.0231
4.1,1.4765,-3.4216,8.562,-0.0434,-0.1177,0.0413
4.12,1.1126,-3.1466,8.3038,-0.157,-0.2945,0.0839
4.14,1.1967,-3.3639,8.5512,-0.2074,-0.2731,0.1353
4.16,0.9728,-3.8731,8.6021,-0.2799,-0.1678,0.1009
4.18,0.9982,-3.3761,9.0984,-0.2559,0.0205,0.0918
4.2,0.9627,-3.7723,9.5619,-0.1799,0.2222,0.0491
4.22,1.3919,-3.4501,10.6237,-0.0524,0.4,-0.0481
4.24,1.5352,-3.8735,10.4049,0.1064,0.3917,-0.0441
4.26,1.6873,-3.6842,9.5294,0.1665,0.2153,-0.0911
4.28,1.7877,-3.5277,8.8171,0.2748,-0.0042,-0.1191
4.3,1.5362,-3.8031,8.4564,0.2484,-0.1968,-0.1603
4.32,1.7076,-3.5472,8.4941,0.1961,-0.313,-0.0876
4.34,1.6368,-3.3322,8.4453,0.1718,-0.2354,-0.1018
4.36,1.2002,-3.2254,8.3373,0.0523,-0.1416,-0.0793
4.38,1.3071,-3.28,8.7848,0.011,0.0281,-0.0167
4.4,1.4076,-3.416,8.5653,-0.0568,0.106,-0.0091
4.42,1.5476,-3.2642,8.8266,-0.0393,0.131,-0.0234
4.44,1.0747,-3.5387,8.5821,-0.0883,0.0987,-0.0085
4.46,1.2444,-3.4777,8.9669,-0.0301,0.0774,-0.033
4.48,1.4452,-3.4186,8.859,-0.0207,-0.0015,0.0118
4.5,1.3157,-3.2835,8.7049,-0.0486,-0.0403,0.02
4.52,1.6324,-3.6027,9.1545,0.0021,-0.0344,0.0242
4.54,1.4755,-3.4099,8.8014,0.0227,-0.0179,0.0047
4.56,1.5541,-3.4783,8.9928,0.0114,-0.0176,-0.0275
4.58,1.4162,-3.2298,8.7603,-0.0215,-0.037,-0.0111
4.6,1.3099,-3.4867,8.8184,-0.0105,0.0039,-0.0386
4.62,1.1038,-3.5394,8.635,-0.0039,-0.0729,0.018
4.64,1.2584,-3.4078,8.7338,0.0201,-0.0166,0.0099
4.66,1.6501,-3.7513,8.9053,0.0545,0.0287,0.056
4.68,1.5881,-3.5042,8.8277,0.1038,0.0596,0.0253
4.7,1.5921,-3.5137,8.5248,0.1159,0.0896,0.0435
4.72,1.1661,-3.5474,8.7707,0.1031,0.0924,0.0119
4.74,1.1244,-3.499,8.4938,0.0605,0.0618,0.0085
4.76,1.2078,-3.7311,8.1946,-0.032,-0.0085,-0.0534
4.78,1.2413,-3.5304,8.337,-0.0695,-0.1504,-0.0339
4.8,1.298,-3.547,8.3097,-0.144,-0.2233,-0.1274
4.82,1.1065,-3.5544,8.6256,-0.2232,-0.257,-0.0988
4.84,0.8433,-3.4336,8.4198,-0.2493,-0.1805,-0.0886
4.86,1.1473,-3.4346,8.9878,-0.2183,0.0202,-0.0743
4.88,0.7166,-3.3217,9.3803,-0.2013,0.2379,-0.0619
4.9,0.8845,-3.3275,9.8787,-0.0743,0.3752,-0.0558
4.92,1.5399,-3.17,10.2644,0.0467,0.3905,-0.0071
4.94,1.5876,-3.3563,9.4672,0.2104,0.2386,0.0639
4.96,1.5595,-3.4298,8.6888,0.2407,0.0315,0.0581
4.98,1.583,-3.4426,8.495,0.2899,-0.1693,0.1312
5.0,1.3843,-3.4561,8.3085,0.2154,-0.2672,0.0996
5.02,1.3266,-3.6664,8.2073,0.1654,-0.2677,0.0354
5.04,1.2935,-3.6719,8.2633,0.1302,-0.152,0.082
5.06,1.2623,-3.4184,8.3516,0.0503,-0.0256,0.0355
5.08,1.2343,-3.773,8.5382,-0.0113,0.0829,0.0141
5.1,1.0024,-3.4543,8.5574,-0.0616,0.1108,-0.0205
5.12,0.9908,-3.7146,8.4905,-0.1006,0.0777,-0.0132
5.14,0.929,-3.6433,8.5885,-0.0226,0.053,-0.0341
5.16,0.9326,-3.5507,8.4526,-0.0644,-0.0106,-0.0368
5.18,1.4286,-3.5615,8.9203,0.0235,-0.0059,0.013
5.2,1.2047,-3.3761,8.8457,-0.0084,-0.0201,-0.0028
5.22,1.2819,-3.67,8.6966,-0.019,-0.0147,-0.011
5.24,1.123,-3.6284,8.6837,0.0039,-0.0447,0.0113
5.26,1.3481,-3.5321,8.947,0.0443,0.0135,-0.0055
5.28,1.3652,-3.543,8.9021,0.0042,0.0171,0.004
5.3,1.2026,-3.4819,8.8304,0.0506,0.0008,0.0423
5.32,1.2284,-3.4062,8.7398,0.037,0.0385,-0.0206
5.34,1.5282,-3.4609,8.8947,0.0687,0.064,0.0171
5.36,1.3923,-3.2214,8.6624,0.0666,0.0701,-0.0247
5.38,1.0996,-3.3185,8.5003,0.0919,0.0711,0.0004
5.4,1.2585,-3.2599,8.5115,0.0022,0.0154,0.0241
5.42,1.4031,-3.3469,8.6842,-0.029,-0.0836,0.0614
5.44,1.263,-3.2921,8.5552,-0.0832,-0.2258,0.0722
5.46,1.2379,-3.7208,8.5871,-0.1586,-0.2848,0.0771
5.48,1.1316,-3.5354,8.689,-0.194,-0.2062,0.1044
5.5,1.0193,-3.5264,8.9896,-0.204,-0.0362,0.0951
5.52,1.0185,-3.6259,9.2519,-0.1654,0.1633,0.0774
5.54,1.2739,-3.6545,9.8363,-0.1182,0.2969,0.0208
5.56,1.5168,-3.4742,10.2156,0.0284,0.3425,0.0344
5.58,1.4274,-3.4055,9.7189,0.1546,0.2763,-0.0482
5.6,1.7793,-3.5661,9.4795,0.2164,0.0941,-0.0849
5.62,1.8423,-3.7157,8.7582,0.2386,-0.1406,-0.0834
5.64,1.6988,-3.4391,8.5588,0.2545,-0.2448,-0.0987
5.66,1.4527,-3.5647,8.3776,0.1825,-0.246,-0.0787
5.68,1.4107,-3.1715,8.2388,0.0694,-0.1644,-0.0552
5.7,1.0567,-3.589,8.4582,-0.0071,-0.0369,-0.0607
5.72,1.3974,-3.2627,8.5778,-0.0151,0.0568,-0.0428
5.74,1.5061,-3.3656,8.8424,-0.0529,0.1124,-0.0061
5.76,1.2113,-3.4423,8.7528,-0.0638,0.1238,0.0033
5.78,1.355,-3.5595,8.6717,-0.1347,0.0517,0.0092
5.8,1.4415,-3.3541,9.2172,0.008,0.0382,-0.0004
5.82,1.5118,-3.3201,9.3484,-0.0127,0.0154,0.0146
5.84,1.4881,-3.453,8.9893,-0.0272,-0.0081,-0.0204
5.86,1.1936,-3.3329,8.8482,0.0002,0.0048,-0.0031
5.88,1.1125,-3.8366,8.6082,-0.0127,-0.0131,-0.0133
5.9,1.3384,-3.2479,8.9565,0.0175,0.0524,-0.0034
5.92,1.3761,-3.1626,8.8738,0.0407,0.0069,0.0118
5.94,1.2627,-3.4193,8.6454,-0.0074,-0.033,-0.0149
5.96,1.3152,-3.3218,8.8234,0.034,0.0041,-0.0248
5.98,1.3152,-3.5019,8.8629,0.0279,-0.0365,-0.0177
6.0,1.3409,-3.3572,8.9535,0.05,-0.0079,0.0307
6.02,1.3523,-3.4764,8.6183,0.049,0.0206,-0.006
6.04,1.6591,-3.498,8.536,0.0673,0.0594,-0.0052
6.06,1.513,-3.5868,8.4243,0.0803,0.0803,-0.0011
6.08,1.4383,-3.598,8.7194,0.0647,0.0915,0.0
6.1,1.3365,-3.6234,8.4501,0.0158,0.0188,-0.0431
6.12,1.3792,-3.7472,8.3456,-0.0446,-0.0531,-0.032
6.14,1.2544,-3.6431,8.2461,-0.1083,-0.1853,-0.0582
6.16,1.1636,-3.5906,8.2745,-0.1874,-0.2472,-0.1143
6.18,1.0098,-3.3311,8.1435,-0.244,-0.2391,-0.0878
6.2,0.7405,-3.391,8.4819,-0.2054,-0.0811,-0.0888
6.22,0.7914,-3.3233,9.2721,-0.1748,0.1172,-0.0792
6.24,1.1,-3.5281,9.9163,-0.0963,0.2859,-0.0767
6.26,1.0858,-3.4285,9.8114,-0.0022,0.3888,-0.0212
6.28,1.1888,-3.3062,9.5609,0.1246,0.3055,0.0367
6.3,1.4766,-3.2605,9.0679,0.1988,0.1109,0.0577
6.32,1.4773,-3.4427,8.2943,0.2421,-0.0999,0.0711
6.34,1.6842,-3.5433,8.432,0.2486,-0.2278,0.1188
6.36,1.4333,-3.4267,8.3263,0.2001,-0.2453,0.0701
6.38,1.3435,-3.5581,8.5362,0.0931,-0.2123,0.0693
6.4,1.3042,-3.5436,8.4239,0.0897,-0.0557,0.0438
6.42,1.1416,-3.6547,8.2478,-0.0096,0.0127,0.0082
6.44,1.0169,-3.6385,8.389,-0.0518,0.0994,0.0209
6.46,1.2042,-3.4457,8.7401,-0.0396,0.1235,0.0025
6.48,1.1023,-3.3695,8.5329,-0.082,0.069,-0.0325
6.5,0.9862,-3.5304,8.4076,-0.0939,-0.006,-0.0605
6.52,1.0839,-3.5003,8.6269,-0.0208,-0.0397,-0.0145
6.54,1.3034,-3.4793,8.8705,-0.0062,0.0021,0.0095
6.56,1.2208,-3.5902,8.8882,-0.0229,-0.0257,-0.0174
6.58,1.1788,-3.5981,8.5301,-0.0037,-0.0385,-0.0078
6.6,1.3962,-3.3892,9.0259,0.0244,-0.0056,0.0064
6.62,1.1852,-3.3912,8.6959,0.0243,-0.0351,-0.0011
6.64,1.2396,-3.4928,8.9498,-0.0057,0.0168,-0.0155
6.66,1.7311,-3.3215,9.0542,0.0592,-0.0264,0.0138
6.68,1.3111,-3.7307,8.8022,0.0415,0.0227,-0.0014
6.7,1.4372,-3.6497,8.721,0.0586,0.0286,-0.031
6.72,1.3215,-3.338,8.4895,0.019,0.0795,-0.01
6.74,1.4595,-3.3031,8.6957,0.0732,0.0881,-0.0089
6.76,1.4079,-3.3722,8.7845,0.0688,0.0802,-0.0289
6.78,1.3355,-3.1915,8.5641,0.0384,0.0168,0.0431
6.8,1.3919,-3.3784,8.779,-0.0288,-0.0867,0.0754
6.82,1.2824,-3.3695,8.411,-0.1244,-0.2321,0.065
6.84,1.2782,-3.4256,8.4514,-0.2274,-0.2976,0.0938
6.86,1.1854,-3.5629,8.5001,-0.2924,-0.2605,0.1139
6.88,0.8073,-3.4392,8.5585,-0.2886,-0.084,0.0977
6.9,0.9781,-3.6168,9.393,-0.1576,0.1614,0.084
6.92,1.2887,-3.3205,10.324,-0.0993,0.3883,0.065
6.94,1.5072,-3.7093,10.4259,0.0181,0.4313,-0.021
6.96,1.3186,-3.791,9.7998,0.1357,0.3407,-0.0524
6.98,1.8649,-3.5275,9.345,0.2534,0.0977,-0.0999
7.0,1.7213,-3.5135,8.8374,0.2786,-0.1375,-0.0649
7.02,1.8318,-3.4991,8.484,0.2606,-0.303,-0.0785
7.04,1.6536,-3.3016,8.5665,0.2682,-0.2795,-0.0959
7.06,1.5141,-3.35,8.3889,0.1071,-0.1837,-0.1028
7.08,1.6949,-3.5132,8.6539,0.0254,-0.0381,-0.0186
7.1,1.5731,-3.2022,8.8255,-0.0218,0.0788,-0.0145
7.12,1.3507,-3.3714,8.5981,-0.0771,0.1111,-0.0286
7.14,1.4758,-3.2701,8.9154,-0.053,0.1134,-0.0005
7.16,1.3286,-3.2368,8.9553,-0.0065,0.1008,0.0055
7.18,1.5247,-3.0893,8.8201,-0.007,0.014,0.011
7.2,1.4778,-3.4592,9.0613,-0.0149,0.0108,0.0269
7.22,1.4245,-3.2982,8.9055,0.0086,-0.0381,0.0326
7.24,1.3908,-3.3449,8.7902,-0.0019,-0.0408,-0.018
7.26,1.6629,-3.5198,8.879,-0.0175,-0.0157,0.0129
7.28,1.4269,-3.3609,8.6302,0.0004,0.005,-0.0213
7.3,1.4478,-3.5116,8.8112,-0.0274,0.0347,-0.0164
7.32,1.1461,-3.4325,8.7333,-0.0343,-0.008,-0.0223
7.34,1.5102,-3.5753,8.8586,0.0235,0.0214,0.0277
7.36,1.3026,-3.4891,8.7002,0.0011,-0.0145,0.0043
7.38,1.3298,-3.4944,8.8952,0.01,-0.0395,0.0138
7.4,1.4747,-3.3959,9.2787,0.0265,-0.0184,0.0517
7.42,1.3021,-3.6301,8.6766,0.0332,0.0129,0.0274
7.44,1.3593,-3.4439,8.6534,0.0525,0.0352,0.0261
7.46,1.5529,-3.5521,8.6773,0.0951,0.0743,0.0536
7.48,1.3224,-3.62,8.4009,0.0641,0.0637,0.0178
7.5,1.3256,-3.6273,8.3151,0.0607,0.073,-0.0148
7.52,1.1668,-3.6354,8.3621,0.01,0.0096,-0.0523
7.54,1.0325,-3.5353,8.1705,-0.0731,-0.1089,-0.0685
7.56,1.4359,-3.5992,8.4631,-0.1314,-0.2518,-0.0503
7.58,1.1896,-3.4674,8.5322,-0.1685,-0.2648,-0.1216
7.6,1.0675,-3.3567,8.4909,-0.2368,-0.1715,-0.1185
7.62,0.9121,-3.3469,8.9518,-0.2663,-0.0137,-0.0876
7.64,0.8767,-3.2526,9.3533,-0.1433,0.2153,-0.0363
7.66,1.0659,-3.1818,9.6585,-0.0593,0.3414,0.0027
7.68,1.4236,-3.131,10.0995,0.0538,0.3287,0.026
7.7,1.534,-3.2999,9.403,0.22,0.2469,0.0255
7.72,1.8329,-3.3145,8.8853,0.2755,-0.0025,0.1188
7.74,1.3719,-3.4238,8.4781,0.3022,-0.1878,0.1222
7.76,1.3244,-3.2889,8.304,0.2088,-0.2663,0.0918
7.78,1.338,-3.6064,8.4727,0.1525,-0.2391,0.0981
7.8,1.3689,-3.582,8.4649,0.144,-0.1174,0.082
7.82,1.2424,-3.454,8.4609,0.0291,0.0308,-0.0023
7.84,1.3389,-3.4793,8.5791,-0.0579,0.0934,0.0269
7.86,1.3503,-3.5633,8.406,-0.0367,0.1289,-0.0187
7.88,1.2551,-3.5295,8.5589,-0.0466,0.0676,0.0375
7.9,1.1771,-3.3023,8.7574,-0.043,0.0316,-0.0131
7.92,1.3272,-3.3034,8.7184,-0.0145,0.0163,-0.017
7.94,1.3162,-3.5235,8.8258,-0.0111,-0.0074,-0.0041
7.96,1.1597,-3.3406,8.6496,0.0198,0.0055,-0.0075
7.98,1.4526,-3.3902,8.8261,-0.0191,-0.0073,-0.0019
8.0,1.1697,-3.5183,8.5249,0.012,-0.0668,-0.028
8.02,1.2249,-3.3865,8.6774,-0.0501,-0.0236,-0.0217
8.04,1.3665,-3.1842,8.977,0.0198,0.0052,-0.0035
8.06,1.4871,-3.3127,9.0712,0.071,-0.0146,0.0067
8.08,1.5659,-3.5163,8.9249,0.0521,-0.0056,-0.0001
8.1,1.3896,-3.3132,8.9296,0.095,0.0384,-0.0107
8.12,1.4638,-3.5974,8.7617,0.0588,0.0923,-0.0381
8.14,1.3155,-3.2078,8.6855,0.1029,0.1435,-0.0163
8.16,1.1615,-3.2051,8.7953,0.052,0.0809,0.0021
8.18,1.4342,-3.3221,8.7522,0.0244,0.007,0.0128
8.2,1.4475,-3.3725,8.3864,-0.0498,-0.1145,0.0311
8.22,1.3547,-3.3286,8.4753,-0.1252,-0.2517,0.0628
8.24,1.4179,-3.456,8.4866,-0.1958,-0.2847,0.071
8.26,1.2987,-3.6359,8.7286,-0.2617,-0.2269,0.0567
8.28,0.9561,-3.3623,8.8741,-0.2646,-0.0795,0.0972
8.3,1.2229,-3.5432,9.6741,-0.1796,0.1624,0.0694
8.32,1.5056,-3.386,10.3184,-0.1039,0.3271,-0.0074
8.34,1.4053,-3.8548,9.8993,-0.0027,0.3669,-0.0049
8.36,1.7543,-3.6118,9.8392,0.1373,0.2667,-0.0687
8.38,1.8788,-3.5278,9.4304,0.2181,0.1006,-0.0593
8.4,1.9233,-3.4167,8.6796,0.2485,-0.1708,-0.0883
8.42,1.497,-3.3905,8.4217,0.2363,-0.2886,-0.1129
8.44,1.5803,-3.4068,8.6326,0.208,-0.2743,-0.1072
8.46,1.5129,-3.5137,8.5611,0.1461,-0.141,-0.0728
8.48,1.3084,-3.2859,8.4549,0.0283,-0.068,-0.057
8.5,1.4986,-3.1953,8.7687,0.0106,0.0407,-0.0247
8.52,1.2965,-3.4584,8.6306,-0.0693,0.0922,0.0059
8.54,0.9546,-3.3689,8.3061,-0.0974,0.0972,0.0191
8.56,1.365,-3.3916,8.8701,-0.0346,0.061,0.0435
8.58,1.1932,-3.4596,8.78,-0.0338,0.0045,0.0242
8.6,1.3534,-3.5952,8.8659,0.0011,-0.0276,0.0496
8.62,1.2433,-3.4351,8.8292,-0.0037,-0.0242,0.0046
8.64,1.2788,-3.3115,8.8831,0.0306,-0.0157,-0.0111
8.66,1.2843,-3.459,8.9404,-0.0151,-0.0152,-0.0312
8.68,1.4109,-3.4944,9.02,0.0166,-0.0204,-0.044
8.7,1.3964,-3.4105,8.6344,0.0182,0.0125,0.0015
8.72,1.852,-3.2833,9.1436,0.0501,0.0497,0.0243
8.74,1.2118,-3.4988,8.7981,0.039,-0.0399,0.0046
8.76,1.3987,-3.3406,8.8102,0.0137,0.0023,0.0283
8.78,1.0485,-3.3786,8.8105,0.0234,-0.0599,0.0238
8.8,1.3247,-3.6594,8.6335,0.007,0.0039,0.0179
8.82,1.3688,-3.3948,8.8745,0.0514,-0.0352,-0.0079
8.84,1.3871,-3.4171,8.7977,0.1203,0.0507,0.0186
8.86,1.3127,-3.412,8.7362,0.103,0.0776,0.0307
8.88,1.4784,-3.4173,8.8508,0.1306,0.1464,0.0494
8.9,1.0267,-3.6388,8.3031,0.038,0.0641,-0.0274
8.92,1.2066,-3.605,8.2891,0.0356,0.018,-0.0245
8.94,0.9719,-3.6395,8.2722,-0.0618,-0.1514,-0.0646
8.96,0.9625,-3.6126,8.1957,-0.1501,-0.2675,-0.1067
8.98,1.1255,-3.4747,8.2301,-0.2089,-0.323,-0.0942
9.0,1.0151,-3.4347,8.5068,-0.2058,-0.2057,-0.0904
9.02,0.662,-3.2636,8.5704,-0.2322,-0.042,-0.1139
9.04,0.8262,-3.0619,9.3584,-0.1445,0.2133,-0.0738
9.06,1.4728,-3.2024,10.2516,-0.0008,0.4144,-0.0281
9.08,1.2623,-3.375,9.9332,0.0181,0.3564,0.0688
9.1,1.1458,-3.4266,9.323,0.1526,0.2407,0.0813
9.12,1.7429,-3.3927,8.9978,0.2352,0.0213,0.0939
9.14,1.4839,-3.4439,8.2978,0.2608,-0.1774,0.088
9.16,1.6392,-3.542,8.2442,0.2543,-0.3212,0.0834
9.18,1.3374,-3.5415,8.298,0.1611,-0.2739,0.0971
9.2,1.3504,-3.5169,8.3978,0.1042,-0.1948,0.0621
9.22,1.1144,-3.6989,8.1836,-0.0028,-0.0127,0.0884
9.24,1.1445,-3.6735,8.5614,-0.0279,0.0568,0.0025
9.26,1.3307,-3.6431,8.7464,-0.0518,0.1158,-0.0067
9.28,1.3424,-3.5162,8.5687,-0.0543,0.0936,0.039
9.3,1.1505,-3.6277,8.5127,-0.0398,0.0353,-0.0171
9.32,1.4182,-3.054,8.9996,-0.01,-0.0111,-0.0099
9.34,1.2443,-3.6641,8.8543,0.0267,-0.043,-0.0364
9.36,1.4051,-3.5866,9.0373,-0.0048,-0.0546,-0.0017
9.38,1.4296,-3.5384,8.9939,0.0133,-0.0124,-0.0007
9.4,1.2326,-3.2337,8.9763,0.0152,-0.0154,0.0102
9.42,1.3257,-3.4723,8.7772,0.0073,-0.007,-0.0123
9.44,1.4337,-3.324,8.8778,-0.0019,-0.0506,-0.0176
9.46,1.349,-3.1247,8.9886,0.0218,0.0149,0.008
9.48,1.412,-3.5389,8.9245,0.0024,-0.0628,-0.0169
9.5,1.4871,-3.4254,9.103,0.0688,-0.0164,0.0213
9.52,1.3902,-3.4832,8.8589,0.079,0.0025,-0.0268
9.54,1.4938,-3.2918,8.9888,0.0737,0.068,0.0239
9.56,1.4216,-3.2261,8.839,0.0775,0.1232,-0.0151
9.58,1.7819,-3.1951,9.0999,0.1605,0.1595,0.0422
9.6,1.3095,-3.3287,8.3409,-0.0055,-0.0011,-0.0096
9.62,1.2718,-3.3987,8.5615,-0.0572,-0.0639,0.0595
9.64,1.4612,-3.2231,8.8957,-0.0558,-0.1905,0.0497
9.66,1.3044,-3.4271,8.6087,-0.1786,-0.2804,0.1048
9.68,1.2225,-3.5749,8.7146,-0.199,-0.2686,0.0989
9.7,1.1505,-3.4808,8.9848,-0.2113,-0.1285,0.0813
9.72,1.2656,-3.4365,9.4084,-0.1629,0.1105,0.0756
9.74,1.2232,-3.7518,9.7818,-0.1024,0.2771,0.0346
9.76,1.3152,-3.6292,10.0433,-0.0393,0.3361,-0.0203
9.78,1.366,-3.5579,9.738,0.125,0.2735,-0.0224
9.8,1.8045,-3.5543,9.6678,0.209,0.113,-0.0578
9.82,1.7933,-3.6072,8.8581,0.249,-0.1116,-0.0742
9.84,1.7462,-3.2795,8.6207,0.2433,-0.2384,-0.0897
9.86,1.6849,-3.4279,8.4169,0.1911,-0.2872,-0.0807
9.88,1.2945,-3.3695,8.551,0.1415,-0.2286,-0.0635
9.9,1.5886,-3.4077,8.407,0.0199,-0.0494,-0.0473
9.92,1.362,-3.419,8.5294,-0.0171,0.0119,-0.0105
9.94,1.4417,-3.3779,8.6262,-0.03,0.0796,0.0153
9.96,1.4525,-3.3911,8.6904,-0.0586,0.1007,-0.0135
9.98,0.9715,-3.4038,8.6287,-0.0689,0.0435,0.0181
10.0,1.1836,-3.276,8.7983,-0.0205,0.0204,-0.0251
10.02,1.3007,-3.6562,8.8118,-0.0301,-0.011,0.0108
10.04,1.4484,-3.4677,8.8866,-0.0104,-0.0145,0.0573
10.06,1.3118,-3.429,8.7669,-0.0189,-0.024,0.0016
10.08,1.5089,-3.3606,8.9565,0.1133,-0.0065,0.0414
10.1,1.3348,-3.5229,8.6958,0.033,-0.0014,0.0078
10.12,1.4119,-3.307,8.746,0.0088,-0.0159,0.0109
10.14,1.2666,-3.4721,8.5833,-0.003,-0.0129,0.0024
10.16,1.2254,-3.6238,8.6302,0.0283,-0.0063,-0.0103
10.18,1.1711,-3.5814,8.8345,0.0211,0.0039,-0.0271
10.2,1.3328,-3.4442,8.4659,0.0071,-0.0212,0.0009
10.22,1.3315,-3.4392,8.4876,0.0088,-0.0306,0.0077
10.24,1.4164,-3.2355,8.8517,0.0625,0.0077,0.0112
10.26,1.1512,-3.3596,8.488,0.024,-0.0084,-0.0323
10.28,1.5091,-3.2996,8.9519,0.025,0.025,0.0132
10.3,1.098,-3.5355,8.7328,-0.0141,0.0064,0.0054
10.32,1.0369,-3.389,8.5425,0.0066,-0.036,-0.0125
10.34,1.1463,-3.4546,8.8294,0.0152,-0.0475,0.0106
10.36,1.2009,-3.492,8.684,-0.0005,-0.0536,0.003
10.38,1.3276,-3.5255,8.7316,0.0237,-0.0247,0.0271
10.4,1.25,-3.387,8.5717,0.0788,0.0165,0.0159
10.42,1.267,-3.4386,8.4574,0.053,0.0603,0.023
10.44,1.2372,-3.644,8.4142,0.0321,0.0781,-0.0095
10.46,1.1506,-3.5179,8.4107,0.0553,0.1313,-0.0354
10.48,1.3756,-3.7174,8.5141,0.0545,0.038,-0.0056
10.5,1.3767,-3.4828,8.3148,-0.0357,-0.0733,-0.0476
10.52,1.1287,-3.4929,8.0632,-0.1223,-0.2448,-0.1013
10.54,0.9854,-3.4382,8.0314,-0.196,-0.3432,-0.0969
10.56,0.8649,-3.2692,8.2791,-0.2591,-0.3096,-0.0935
10.58,0.7532,-3.2414,8.466,-0.3013,-0.1364,-0.116
10.6,0.9551,-3.466,9.2657,-0.2145,0.0966,-0.0884
10.62,1.154,-3.273,10.0179,-0.1429,0.3237,-0.0071
10.64,1.2596,-3.0558,10.2209,-0.0219,0.4353,-0.0112
10.66,1.5283,-3.2077,10.0748,0.1262,0.4095,0.0496
10.68,1.6405,-3.2081,9.5717,0.2296,0.1663,0.0878
10.7,2.0532,-3.298,8.7753,0.3188,-0.0865,0.1159
10.72,1.6739,-3.3773,8.4937,0.3019,-0.2543,0.0972
10.74,1.5937,-3.3589,8.4327,0.2277,-0.3277,0.1373
10.76,1.4276,-3.5057,8.4555,0.1371,-0.2665,0.064
10.78,1.4823,-3.4804,8.5751,0.0909,-0.1407,0.0841
10.8,1.4334,-3.4579,8.6523,-0.014,-0.0011,0.0217
10.82,1.4757,-3.5366,8.819,-0.0567,0.1211,0.0281
10.84,1.2246,-3.2879,8.4243,-0.1286,0.0987,0.0024
10.86,1.7865,-3.2731,9.1835,-0.022,0.1132,-0.0052
10.88,1.379,-3.3421,8.9323,0.0196,0.0309,-0.0443
10.9,1.3736,-3.4881,8.8242,-0.0348,-0.0227,-0.021
10.92,1.4496,-3.4661,8.9186,-0.0315,-0.0479,0.0015
10.94,1.5622,-3.257,9.0653,-0.0109,-0.0358,-0.0112
10.96,1.5595,-3.4006,8.9288,-0.0049,-0.0064,-0.024
10.98,1.5156,-3.3821,9.0591,0.0584,0.0049,0.017
11.0,1.7135,-3.3982,9.3,0.061,0.0044,0.0425
11.02,1.3308,-3.4866,8.7889,0.0246,-0.0309,-0.0512
11.04,1.7115,-3.274,9.2632,0.0486,-0.0067,0.0076
11.06,1.499,-3.5756,8.6935,0.0469,-0.0232,-0.0258
11.08,1.5997,-3.2208,8.922,0.0599,0.0295,-0.0143
11.1,1.6128,-3.3659,8.8145,0.0695,0.1056,-0.0311
11.12,1.3616,-3.2541,8.7219,0.0567,0.0973,0.0021
11.14,1.6334,-3.3426,8.4952,0.0428,0.07,0.0341
11.16,1.3945,-3.4335,8.4958,-0.0204,-0.0507,0.0413
11.18,1.0543,-3.318,8.1507,-0.1103,-0.1624,0.0628
11.2,1.358,-3.4443,8.4514,-0.1709,-0.2545,0.0725
11.22,1.1932,-3.2096,8.572,-0.2339,-0.2478,0.08
11.24,0.8463,-3.6087,8.5669,-0.2408,-0.1499,0.068
11.26,0.9721,-3.5759,9.076,-0.2194,0.0425,0.0275
11.28,0.8262,-3.6993,9.6113,-0.135,0.2329,0.0435
11.3,1.2774,-3.5758,10.188,-0.0172,0.3516,0.0279
11.32,1.4443,-3.5417,9.9043,0.0786,0.3168,-0.0591
11.34,1.7887,-3.5523,9.1703,0.2032,0.1796,-0.037
11.36,1.7539,-3.6518,8.8127,0.2417,-0.0586,-0.1126
11.38,1.5047,-3.519,8.6241,0.2266,-0.2165,-0.0935
11.4,1.5745,-3.3416,8.373,0.1832,-0.2876,-0.1137
11.42,1.4852,-3.4055,8.2401,0.1904,-0.2374,-0.0778
11.44,1.289,-3.4471,8.4124,0.0818,-0.1422,-0.065
11.46,1.2278,-3.2542,8.5614,0.0306,0.0109,-0.0368
11.48,1.2682,-3.3064,8.3805,-0.0989,0.0822,-0.0063
11.5,1.054,-3.4272,8.4022,-0.1066,0.0683,0.0024
11.52,1.2462,-3.4086,8.704,-0.0451,0.082,0.0371
11.54,1.2804,-3.4017,8.8119,-0.0653,0.0327,0.0238
11.56,1.2479,-3.5287,8.7908,-0.0234,-0.0236,0.0318
11.58,1.193,-3.526,8.7195,0.017,-0.0624,-0.0202
11.6,0.9917,-3.5791,8.698,-0.0098,-0.0397,-0.0372
11.62,1.1981,-3.4629,9.1045,0.0385,-0.0213,0.0161
11.64,1.3348,-3.5345,8.7626,-0.0225,-0.0219,0.0225
11.66,1.0656,-3.4737,8.7525,-0.033,-0.0222,-0.017
11.68,1.4121,-3.4892,8.9668,0.04,0.0079,0.0163
11.7,1.4167,-3.3089,8.9573,0.0482,-0.0273,0.0068
11.72,1.4069,-3.5856,8.5698,-0.0164,-0.0791,-0.023
11.74,1.291,-3.7207,8.5518,0.0161,0.0122,0.043
11.76,1.3053,-3.3947,8.6965,0.0877,0.0437,0.0125
11.78,1.4058,-3.54,8.8521,0.1123,0.1164,0.0406
11.8,1.3872,-3.5404,8.5616,0.0961,0.1073,0.0147
11.82,1.0063,-3.5215,8.0018,-0.0158,0.0654,-0.0437
11.84,1.4555,-3.564,8.442,0.0185,-0.0469,-0.0344
11.86,1.1842,-3.3944,8.573,-0.0617,-0.1939,-0.05
11.88,1.0114,-3.3758,8.3516,-0.2019,-0.2874,-0.0703
11.9,1.1228,-3.5162,8.1681,-0.2582,-0.3191,-0.1078
11.92,0.9155,-3.6093,8.486,-0.2714,-0.1999,-0.1299
11.94,0.7625,-3.3312,8.8492,-0.2735,-0.0106,-0.099
11.96,1.1295,-3.0653,10.0335,-0.1472,0.2917,-0.0443
11.98,1.0907,-3.2492,10.1882,-0.0137,0.4456,-0.0148
12.0,1.7276,-3.0542,10.3578,0.1071,0.3985,0.026
12.02,1.8969,-3.302,9.3624,0.1877,0.1815,0.0533
12.04,1.6883,-3.3555,8.8179,0.2882,-0.0285,0.1153
12.06,1.8002,-3.4491,8.5488,0.2758,-0.2599,0.1422
12.08,1.7827,-3.2904,8.5921,0.3011,-0.2872,0.1337
12.1,1.4871,-3.4298,8.4981,0.1577,-0.264,0.0857
12.12,1.3835,-3.3692,8.6098,0.1087,-0.1446,0.0551
12.14,1.2344,-3.5957,8.6021,0.0235,0.0049,0.0545
12.16,1.2178,-3.2692,8.4802,-0.0744,0.0774,0.0048
12.18,1.2526,-3.38,8.7282,-0.0272,0.1233,0.0085
12.2,1.5331,-3.5421,8.845,-0.0789,0.0995,-0.0174
12.22,1.1315,-3.4435,8.9099,-0.0369,0.0779,0.0153
12.24,1.4145,-3.4236,8.9537,-0.0507,-0.0112,0.0107
12.26,1.6158,-3.3386,9.1551,0.0363,-0.0246,-0.0239
12.28,1.5985,-3.2779,9.3005,0.0034,0.0007,0.0163
12.3,1.419,-3.5091,9.3195,0.0491,-0.0128,0.0057
12.32,1.526,-3.6015,9.0705,0.0075,-0.0214,-0.0059
12.34,1.4699,-3.4757,8.9654,0.0283,0.0103,-0.0332
12.36,1.2976,-3.5131,8.8712,0.0022,-0.0467,-0.0126
12.38,1.379,-3.4829,8.745,-0.0038,0.0101,0.0125
12.4,1.2756,-3.4574,8.9049,0.0102,-0.0041,0.0071
12.42,1.1728,-3.3718,8.7952,-0.0154,-0.0305,-0.0237
12.44,1.3459,-3.4786,9.1116,-0.0053,0.0015,-0.0264
12.46,1.4014,-3.5543,9.2929,0.013,-0.0458,0.0193
12.48,1.4037,-3.3396,9.0168,0.0109,-0.0618,0.0013
12.5,1.3818,-3.3437,9.0126,0.0296,-0.0092,-0.0077
12.52,1.414,-3.3269,8.9356,0.0547,0.0299,0.0035
12.54,1.3561,-3.1582,8.5184,0.088,0.1073,-0.0281
12.56,1.4692,-3.5129,8.5832,0.0956,0.1144,-0.008
12.58,1.4167,-3.3114,8.6498,0.0732,0.0949,0.019
12.6,1.0548,-3.6411,8.1923,-0.0072,-0.0116,0.0609
12.62,1.196,-3.4387,8.4798,-0.0605,-0.194,0.0497
12.64,1.3103,-3.3434,8.3359,-0.1354,-0.2776,0.0952
12.66,1.1779,-3.5058,8.3113,-0.2494,-0.3464,0.0767
12.68,1.1378,-3.456,8.6693,-0.2375,-0.2104,0.119
12.7,0.9327,-3.4578,9.0717,-0.2536,-0.0363,0.1061
12.72,1.0169,-3.6837,9.5691,-0.1839,0.1776,0.056
12.74,0.9871,-3.4597,10.1374,-0.0463,0.4182,0.0445
12.76,1.6266,-3.6413,10.4344,0.0659,0.3888,-0.0011
12.78,1.5235,-3.7435,9.7951,0.2002,0.2893,-0.0638
12.8,1.6389,-3.5657,8.8053,0.2447,0.0329,-0.0995
12.82,1.788,-3.6177,8.2901,0.2827,-0.1964,-0.1107
12.84,1.2306,-3.6407,8.0396,0.2369,-0.3104,-0.1015
12.86,1.6472,-3.5472,8.2345,0.1709,-0.3083,-0.0971
12.88,1.1099,-3.3911,8.3058,0.0915,-0.1811,-0.0869
12.9,1.3162,-3.2594,8.3649,0.0472,0.0051,-0.0005
12.92,1.1419,-3.4024,8.3332,-0.0535,0.0965,-0.0333
12.94,1.1128,-3.3059,8.348,-0.0641,0.1056,-0.0032
12.96,1.0896,-3.4277,8.6599,-0.0411,0.0786,0.0134
12.98,0.9884,-3.6793,8.522,-0.0436,0.0235,0.007
13.0,1.2144,-3.3529,8.8223,-0.0555,-0.0291,0.0112
13.02,0.9876,-3.564,8.7055,0.0287,-0.0033,-0.0363
13.04,1.2481,-3.4416,8.7047,-0.004,-0.0538,0.0244
13.06,1.0778,-3.6271,8.5799,0.0112,-0.0463,-0.0016
13.08,1.1375,-3.5955,8.6666,0.0353,-0.0273,-0.019
13.1,1.504,-3.2843,8.9012,0.0109,0.0275,-0.0035
13.12,1.4884,-3.5669,8.5996,0.0129,-0.058,-0.0181
13.14,1.1342,-3.4924,8.7524,0.0038,-0.036,0.0018
13.16,1.2915,-3.539,8.7279,0.0136,0.0147,0.0062
13.18,1.2352,-3.4532,8.7039,0.0116,-0.0312,0.0036
13.2,1.1809,-3.4666,8.6918,0.0176,-0.0444,-0.0078
13.22,1.1852,-3.5622,8.8612,0.0083,-0.0073,0.0078
13.24,1.448,-3.3896,8.7952,0.0427,-0.0132,-0.0002
13.26,1.2009,-3.5839,8.7715,0.0397,0.0412,0.0007
13.28,1.056,-3.5035,8.431,0.0426,0.0756,-0.0359
13.3,1.189,-3.7173,8.5093,0.0335,0.0458,-0.0186
13.32,1.53,-3.3598,8.7151,0.0274,0.0565,-0.0097
13.34,1.2147,-3.698,8.5595,-0.0255,0.0041,-0.0505
13.36,1.2646,-3.3285,8.5439,-0.0754,-0.1082,-0.0898
13.38,1.1814,-3.4055,8.5667,-0.1018,-0.2373,-0.0692
13.4,1.2963,-3.4299,8.5859,-0.22,-0.2472,-0.0622
13.42,0.9133,-3.2323,8.3216,-0.2269,-0.1883,-0.1039
13.44,1.1733,-3.2073,9.198,-0.1992,0.0551,-0.0903
13.46,0.9468,-3.2815,9.5533,-0.1548,0.1838,-0.0501
13.48,1.0123,-3.2916,9.8983,-0.0209,0.3207,-0.0233
13.5,1.5612,-3.002,10.287,0.0642,0.2973,0.0086
13.52,1.6755,-3.2395,9.5914,0.1654,0.1748,0.0665
13.54,1.8947,-3.2846,9.0297,0.2125,-0.0287,0.0827
13.56,1.8908,-3.3476,9.072,0.2656,-0.157,0.1006
13.58,1.4642,-3.3862,8.4866,0.1884,-0.2947,0.1205
13.6,1.8831,-3.4467,8.7709,0.1389,-0.2206,0.0793
13.62,1.4787,-3.3579,8.4685,0.0664,-0.1399,0.0538
13.64,1.2085,-3.4423,8.2439,-0.0586,-0.0186,0.0119
13.66,1.3357,-3.4097,8.7388,-0.0454,0.0405,0.0021
13.68,1.3429,-3.4027,8.6678,-0.0294,0.1272,-0.0024
13.7,1.4544,-3.4336,8.592,-0.06,0.1041,-0.0377
13.72,1.2987,-3.4432,8.7974,-0.0235,0.0233,-0.0335
13.74,1.3103,-3.1413,8.9055,0.0052,0.0098,-0.0132
13.76,0.961,-3.4557,9.0297,-0.004,-0.0324,-0.039
13.78,1.3637,-3.494,8.9019,-0.008,-0.0321,-0.0282
13.8,1.5206,-3.3704,9.4762,0.0451,0.0059,0.0102
13.82,1.5221,-3.2321,8.9711,0.0033,-0.0239,-0.004
13.84,1.6435,-3.4897,8.9089,0.0117,-0.0013,0.0582
13.86,1.2397,-3.2884,8.8331,-0.0054,-0.055,0.0188
13.88,1.3077,-3.3137,8.7977,0.0186,0.0122,-0.0179
13.9,1.1956,-3.4137,8.8829,-0.0094,-0.0051,-0.0076
13.92,1.2125,-3.3226,8.88,0.0022,-0.0143,0.0166
13.94,1.2967,-3.4297,9.0576,0.0151,-0.0095,0.0218
13.96,1.2934,-3.4676,8.7445,-0.0053,-0.0235,-0.0189
13.98,1.3113,-3.1823,8.7908,0.0188,-0.027,-0.0329
14.0,1.1104,-3.5636,8.7075,0.0803,0.0373,-0.0249
14.02,1.3373,-3.3756,8.5997,0.0917,0.0848,-0.0118
14.04,1.1542,-3.5623,8.6336,0.0735,0.122,-0.0008
14.06,1.0141,-3.2991,8.4191,0.0333,0.0574,0.0074
14.08,1.3624,-3.3626,8.6005,0.0385,-0.0147,0.0452
14.1,1.0243,-3.438,8.1049,-0.1003,-0.1542,0.0513
14.12,1.0787,-3.4645,8.344,-0.1419,-0.2727,0.1117
14.14,1.0138,-3.334,8.3367,-0.2241,-0.2816,0.0894
14.16,0.9501,-3.5866,8.3538,-0.2506,-0.1754,0.078
14.18,0.7276,-3.7381,8.8602,-0.2386,-0.0235,0.1402
14.2,1.0715,-3.4327,9.805,-0.1835,0.1914,0.039
14.22,0.8835,-3.9617,9.8523,-0.0756,0.3611,0.0193
14.24,1.3214,-3.682,10.2872,0.0602,0.3255,-0.0578
14.26,1.9561,-3.6084,9.6797,0.146,0.1813,-0.0677
14.28,1.3928,-3.728,8.7192,0.2358,0.0062,-0.0999
14.3,1.4798,-3.5665,8.3211,0.2306,-0.2177,-0.1074
14.32,1.4058,-3.402,8.5621,0.25,-0.3205,-0.0928
14.34,1.213,-3.5638,8.5439,0.1706,-0.2823,-0.0963
14.36,1.1155,-3.3937,8.4688,0.0974,-0.1411,-0.0612
14.38,1.1263,-3.5349,8.3311,-0.0066,-0.0462,-0.0398
14.4,1.1852,-3.2638,8.4587,-0.0284,0.0624,0.0038
14.42,1.3307,-3.2879,8.3241,-0.0897,0.0824,-0.0204
14.44,0.9113,-3.3488,8.4416,-0.0824,0.0562,0.0021
14.46,1.0136,-3.5616,8.7078,-0.0753,0.0271,0.0006
14.48,1.3782,-3.6318,9.0401,-0.004,0.0179,0.041
14.5,1.201,-3.592,8.7818,0.0039,-0.0237,0.063
14.52,1.2452,-3.5509,8.9352,-0.0301,-0.0472,0.0006
14.54,1.3634,-3.5547,8.8229,0.0377,0.0024,0.025
14.56,1.337,-3.4786,8.9139,0.0382,0.0353,0.0243
14.58,1.2964,-3.396,8.6527,0.0802,0.0256,0.0139
14.6,1.4056,-3.4357,8.5681,0.1002,0.0905,0.0019
14.62,1.1565,-3.7076,8.4921,0.0635,0.1058,-0.0167
14.64,1.3482,-3.4425,8.5724,0.0531,0.0809,-0.0068
14.66,1.3706,-3.4629,8.5363,0.0164,-0.0061,-0.0393
14.68,1.2267,-3.6187,8.5072,-0.1077,-0.1345,-0.0451
14.7,1.2622,-3.3836,8.4466,-0.1428,-0.2598,-0.0824
14.72,1.2502,-3.1598,8.4248,-0.2513,-0.3097,-0.0796
14.74,0.9783,-3.3178,8.5149,-0.2603,-0.2023,-0.1014
14.76,0.9585,-3.0648,9.0063,-0.2369,0.0017,-0.1057
14.78,1.0819,-3.165,10.1195,-0.1668,0.2501,-0.0671
14.8,1.0473,-3.1128,10.3693,-0.0428,0.4089,-0.0043
14.82,1.6105,-3.2378,10.5691,0.0629,0.3726,0.0224
14.84,1.9385,-2.9621,10.1963,0.1817,0.2398,0.0879
14.86,1.5146,-3.4743,8.8835,0.2495,-0.0156,0.0499
14.88,1.5214,-3.4826,8.4591,0.2375,-0.2436,0.0967
14.9,1.7153,-3.4443,8.3979,0.2577,-0.3003,0.1042
14.92,1.4564,-3.321,8.283,0.1645,-0.2824,0.0919
14.94,1.4053,-3.7147,8.4852,0.0678,-0.1643,0.0796
14.96,1.0879,-3.551,8.6561,0.0153,-0.0061,0.0595
14.98,1.5719,-3.3467,8.6657,-0.0046,0.0651,0.0423
15.0,1.4745,-3.3747,8.9076,-0.0496,0.1316,0.0317
15.02,1.419,-3.4158,8.9078,-0.0547,0.1098,0.0186
15.04,1.1191,-3.4166,8.8242,-0.0613,0.054,-0.0353
15.06,1.3309,-3.5586,8.8255,-0.0245,-0.0218,-0.028
15.08,1.4836,-3.4828,9.0119,-0.0266,-0.0476,-0.0499
15.1,1.2798,-3.546,8.9992,-0.0333,-0.0307,-0.0236
15.12,1.3745,-3.3794,8.9948,-0.0369,-0.0299,-0.027
15.14,1.3729,-3.2384,8.93,0.0141,-0.0179,-0.0364
15.16,1.4557,-3.3981,8.9649,-0.0253,-0.0043,-0.0271
15.18,1.5514,-3.4199,9.1123,0.0145,-0.008,0.0417
15.2,1.5545,-3.5575,9.0744,0.0122,-0.0096,0.025
15.22,1.4037,-3.36,9.1988,0.0322,-0.0232,0.0068
15.24,1.4635,-3.3968,9.27,0.0402,-0.0379,0.005
15.26,1.7036,-3.2597,9.094,0.0845,-0.0205,-0.0099
15.28,1.3175,-3.4612,8.6838,0.0542,0.023,-0.0309
15.3,1.5928,-3.2674,8.7015,0.0561,0.1052,-0.0089
15.32,1.1535,-3.5058,8.5117,0.0448,0.0806,-0.0365
15.34,1.3689,-3.3043,8.5987,0.0714,0.0637,0.0165
15.36,1.4109,-3.5354,8.5476,0.0261,-0.0098,0.0129
15.38,1.0798,-3.5639,8.422,-0.0693,-0.119,0.0545
15.4,0.8799,-3.3946,8.3443,-0.135,-0.2743,0.0849
15.42,0.9639,-3.6802,8.3718,-0.2152,-0.3007,0.0822
15.44,0.6448,-3.4498,8.7002,-0.2655,-0.2182,0.0823
15.46,0.6299,-3.6866,8.9433,-0.2446,-0.0422,0.1031
15.48,0.8946,-3.6803,9.7874,-0.1951,0.1906,0.0578
15.5,0.8138,-3.9709,10.0372,-0.0813,0.3907,-0.0044
15.52,1.5038,-3.7091,10.2833,0.0262,0.3706,-0.0281
15.54,1.2226,-3.9841,9.4292,0.1626,0.2478,-0.1029
15.56,1.5715,-3.6855,8.8495,0.2422,0.0119,-0.0833
15.58,1.5105,-3.5761,8.4729,0.3065,-0.1926,-0.1111
15.6,1.5001,-3.4685,8.3925,0.2502,-0.2779,-0.0823
15.62,1.2789,-3.6717,8.1021,0.1788,-0.2862,-0.1112
15.64,1.1722,-3.3211,8.3651,0.1303,-0.1396,-0.0407
15.66,1.1791,-3.3226,8.1332,-0.0097,-0.0509,-0.0069
15.68,1.0968,-3.6107,8.2367,-0.0558,0.0879,-0.0058
15.7,0.9148,-3.4207,8.3989,-0.0794,0.0895,0.0194
15.72,0.9052,-3.6069,8.4554,-0.1093,0.0699,-0.0035
15.74,0.969,-3.4824,8.4675,-0.0633,0.0482,0.0348
15.76,1.0093,-3.6353,8.5415,-0.059,-0.0211,-0.0013
15.78,1.3577,-3.5078,8.8637,0.0151,-0.0411,0.0251
15.8,1.3261,-3.2793,8.9881,0.0033,-0.0268,-0.0322
15.82,1.1826,-3.5709,8.7998,0.0057,-0.0642,0.0342
15.84,1.1336,-3.6638,8.5752,-0.0106,-0.023,-0.0227
15.86,1.1483,-3.6054,8.7018,-0.0091,-0.0068,-0.0181
15.88,1.2825,-3.4814,8.8014,-0.0173,0.0006,0.0138
15.9,1.3324,-3.3585,9.0253,0.016,-0.0035,0.0019
15.92,1.3271,-3.6724,8.9256,0.0193,-0.0201,0.0354
15.94,1.2868,-3.2094,9.1655,0.0498,-0.015,0.0284
15.96,1.2986,-3.3634,8.9129,0.0301,-0.0132,-0.0008
15.98,1.4448,-3.6092,8.9755,0.0323,-0.0167,0.0291
16.0,1.1627,-3.6061,8.4709,0.0738,0.0421,0.0054
16.02,1.5862,-3.608,8.8547,0.0873,0.1026,0.0428
16.04,1.5962,-3.6816,8.993,0.0885,0.1328,-0.0183
16.06,1.3679,-3.5765,8.8289,0.0492,0.039,-0.0285
16.08,1.4111,-3.4861,8.8918,0.0252,-0.0192,-0.0104
16.1,1.3658,-3.2886,8.3082,-0.079,-0.1514,-0.092
16.12,1.3658,-3.3513,8.7615,-0.1517,-0.2598,-0.0672
16.14,0.8951,-3.357,8.6147,-0.232,-0.284,-0.0938
16.16,1.0862,-3.2653,8.807,-0.2477,-0.1195,-0.0608
16.18,0.6491,-3.2119,9.2543,-0.201,0.063,-0.0621
16.2,0.7976,-3.3702,9.729,-0.1597,0.225,-0.0711
16.22,1.6271,-3.0261,10.6814,-0.0002,0.3688,0.003
16.24,1.8563,-3.282,10.6579,0.166,0.3441,0.0388
16.26,1.3412,-3.4113,9.09,0.16,0.118,0.0831
16.28,2.1944,-2.9477,9.3674,0.2761,0.0056,0.0762
16.3,2.0542,-3.3884,9.1467,0.2715,-0.2007,0.1125
16.32,1.5133,-3.6951,8.2479,0.1535,-0.2923,0.0954
16.34,1.0516,-3.6287,7.7747,0.042,-0.26,0.0655
16.36,0.855,-3.5712,8.3505,0.0496,-0.0868,0.0943
16.38,1.0682,-3.7227,7.9384,-0.0498,0.0046,0.0522
16.4,1.2674,-3.5694,8.6187,-0.077,0.0706,0.0153
16.42,1.2929,-3.1645,8.6269,-0.0408,0.0821,0.0193
16.44,1.5332,-3.2945,9.2087,-0.0141,0.0677,-0.0005
16.46,1.4375,-3.5227,9.109,-0.0353,0.045,-0.0027
16.48,1.1364,-3.5228,8.5739,-0.0641,0.0051,-0.0287
16.5,0.9814,-3.6422,8.698,-0.0694,-0.0503,-0.0089
16.52,1.5404,-3.4554,9.0072,0.001,-0.0445,0.0042
16.54,1.2736,-3.3656,9.0516,-0.0025,0.0362,-0.0007
16.56,1.0015,-3.6907,8.4195,-0.0596,-0.0462,0.0101
16.58,1.4098,-3.4363,9.0707,0.0224,0.0297,0.023
16.6,1.1352,-3.8052,8.4059,-0.0506,-0.0492,0.0014
16.62,1.0622,-3.5357,8.2355,-0.0473,-0.0547,-0.0347
16.64,1.635,-3.3183,9.3682,0.0305,-0.0035,0.0153
16.66,0.7132,-3.7359,8.1683,-0.0434,-0.0689,-0.0313
16.68,1.6912,-3.551,8.8703,0.0916,0.0383,-0.0125
16.7,0.923,-3.6674,8.1722,0.0296,0.0273,-0.0261
16.72,0.8201,-3.7893,7.7969,0.0528,0.0789,-0.0139
16.74,1.5735,-3.4888,8.6536,0.0815,0.1338,0.024
16.76,1.1953,-3.3465,8.4351,0.0325,0.0714,0.0568
16.78,1.247,-3.2084,8.5026,-0.0347,-0.0638,0.0723
16.8,0.8582,-3.7386,7.8165,-0.1705,-0.2804,0.0799
16.82,0.7991,-3.4706,7.983,-0.2505,-0.3487,0.0461
16.84,1.4413,-3.5341,8.9651,-0.1923,-0.2756,0.1117
16.86,0.878,-3.5701,8.6068,-0.2807,-0.1831,0.1211
16.88,0.3214,-3.6386,9.0032,-0.2539,0.0911,0.1256
16.9,1.1923,-3.4346,10.8775,-0.0641,0.4101,0.0536
16.92,1.2261,-3.7385,10.8365,-0.0221,0.4468,-0.0156
16.94,1.0818,-4.0252,9.6205,0.0975,0.3441,-0.0542
16.96,1.5661,-4.0108,9.1545,0.1791,0.1263,-0.0926
16.98,1.6089,-3.7156,8.58,0.2866,-0.1054,-0.1341
17.0,1.593,-3.773,8.214,0.3056,-0.2826,-0.1199
17.02,1.2524,-3.5198,8.2111,0.1973,-0.3511,-0.1677
17.04,1.1198,-3.4299,8.1831,0.1487,-0.2306,-0.076
17.06,1.2895,-3.4981,8.4973,0.0666,-0.1051,-0.0323
17.08,1.2775,-3.5185,8.4897,-0.0311,0.0277,-0.0467
17.1,1.0188,-3.4605,8.3955,-0.1035,0.0709,-0.0188
17.12,1.0858,-3.3472,8.4731,-0.0632,0.1233,0.0118
17.14,1.1825,-3.376,8.7266,-0.0741,0.13,0.0487
17.16,1.0612,-3.6785,8.7835,-0.0704,0.0039,0.0111
17.18,0.9441,-3.4366,8.8326,-0.0398,-0.0162,0.0243
17.2,1.1539,-3.7277,9.0387,-0.0046,-0.039,0.0203
17.22,1.4813,-3.7298,8.7286,-0.0256,-0.0269,-0.0105
17.24,1.1057,-3.5758,8.8698,-0.0094,-0.0247,0.0106
17.26,1.3582,-3.5464,9.0473,0.0122,-0.0237,0.0009
17.28,1.2292,-3.3692,8.6887,-0.0164,-0.0347,-0.0347
17.3,1.2144,-3.3984,8.7191,-0.0371,-0.0203,-0.0233
17.32,1.1718,-3.4476,8.8831,0.0066,-0.0094,0.0052
17.34,1.2824,-3.5248,9.0431,-0.0063,-0.0188,0.0476
17.36,1.4924,-3.1964,9.1588,-0.0156,-0.0304,-0.0143
17.38,1.2746,-3.3646,9.0403,0.018,-0.0001,-0.004
17.4,1.4116,-3.4232,8.6083,0.0106,0.0285,0.0469
17.42,1.0523,-3.4382,8.4112,0.0396,0.0238,0.0004
17.44,1.4157,-3.336,8.9946,0.1142,0.1407,-0.0187
17.46,1.0702,-3.3532,8.4352,0.0557,0.0878,-0.0283
17.48,1.5283,-3.5423,8.6249,0.0169,0.0265,-0.0599
17.5,0.8923,-3.6177,7.9698,-0.0858,-0.1212,-0.0511
17.52,0.7742,-3.6865,7.7388,-0.1913,-0.2504,-0.0914
17.54,0.1601,-4.1013,7.1914,-0.3262,-0.3893,-0.1351
17.56,1.7135,-2.9306,9.6194,-0.1674,-0.1824,-0.1227
17.58,0.5826,-3.5058,8.9448,-0.2769,-0.0967,-0.1133
17.6,1.0987,-3.1009,9.6314,-0.2274,0.1623,-0.0581
17.62,1.0732,-3.2752,10.6912,-0.0993,0.3655,-0.0683
17.64,1.7193,-3.3237,10.7715,0.0247,0.378,-0.0019
17.66,1.8171,-3.2532,10.4928,0.1646,0.3116,0.032
17.68,1.5435,-3.4292,9.0015,0.1888,0.0458,0.0648
17.7,1.5584,-3.4647,8.3335,0.213,-0.159,0.1259
17.72,1.7939,-3.4302,8.7184,0.2673,-0.2654,0.0801
17.74,1.6441,-3.2814,9.0917,0.2582,-0.2559,0.1331
17.76,1.9902,-3.5373,8.9758,0.1465,-0.1511,0.095
17.78,1.6223,-3.3723,9.2572,0.0659,-0.0562,0.0826
17.8,1.181,-3.6489,8.7678,-0.0303,0.0612,-0.0078
17.82,1.2827,-3.4979,8.6475,-0.0511,0.1025,0.0286
17.84,1.8921,-3.2497,9.6615,-0.0262,0.1609,-0.0232
17.86,1.0966,-3.6143,8.5986,-0.0791,0.081,-0.004
17.88,1.4269,-3.5705,9.1423,-0.004,0.0148,0.0213
17.9,1.1457,-3.569,8.9278,-0.0323,-0.048,-0.0122
17.92,1.4272,-3.5156,9.0423,0.0055,-0.0364,-0.0179
17.94,1.4207,-3.3585,8.8075,-0.0241,-0.0345,0.0132
17.96,1.4264,-3.5083,8.6893,0.0391,-0.0081,0.0141
17.98,1.2463,-3.5872,8.8517,0.0295,0.0094,-0.0111
18.0,1.2063,-3.5316,8.8028,-0.0072,-0.008,-0.015
18.02,1.4445,-3.5548,9.1128,0.0208,0.0157,-0.0141
18.04,1.2447,-3.4391,8.7607,-0.0066,0.0192,-0.0275
18.06,1.362,-3.5803,9.258,0.0338,0.0065,0.0404
18.08,1.0229,-3.7041,8.6985,-0.0008,-0.0414,-0.0205
18.1,1.4332,-3.6548,8.9283,0.016,-0.0507,-0.0455
18.12,1.0189,-3.7138,8.688,0.0265,-0.0168,-0.0153
18.14,1.4325,-3.5182,8.5983,0.0598,0.0511,-0.0081
18.16,1.0913,-3.3736,8.5047,0.0786,0.1032,-0.043
18.18,1.2175,-3.3496,8.5833,0.0257,0.1292,-0.0025
18.2,1.009,-3.6341,8.5616,-0.0011,0.0309,0.0406
18.22,1.1502,-3.4142,8.0781,-0.035,-0.0841,0.0402
18.24,1.1195,-3.7794,8.199,-0.1234,-0.2035,0.0879
18.26,0.7838,-3.4441,8.1157,-0.2003,-0.3116,0.0934
18.28,0.8472,-3.3678,8.0005,-0.2595,-0.3165,0.1311
18.3,0.8043,-3.7147,8.5468,-0.2554,-0.1426,0.1094
18.32,0.5634,-3.5988,9.1792,-0.2093,0.0999,0.1042
18.34,1.0239,-3.707,10.3951,-0.0909,0.3239,0.0613
18.36,0.9798,-3.7187,10.4466,-0.0393,0.3781,0.0201
18.38,1.4673,-3.7166,10.1217,0.1095,0.3246,-0.0206
18.4,1.4949,-3.5092,9.6141,0.1788,0.1362,-0.0783
18.42,1.5851,-3.485,8.5538,0.247,-0.0957,-0.0888
18.44,1.4818,-3.5697,8.5889,0.2986,-0.2414,-0.0976
18.46,1.2167,-3.4653,8.1611,0.2176,-0.3223,-0.0725
18.48,1.353,-3.431,8.5522,0.1571,-0.2122,-0.0899
18.5,1.0821,-3.2759,8.4805,0.0756,-0.073,-0.0567
18.52,1.4163,-3.3696,8.3801,-0.0493,0.0492,-0.0136
18.54,1.087,-3.3129,8.4799,-0.0339,0.1055,-0.0048
18.56,1.0823,-3.5225,8.6467,-0.091,0.0997,-0.003
18.58,1.0739,-3.4611,8.5274,-0.0917,0.0821,-0.0001
18.6,1.0091,-3.5674,8.8685,-0.0565,0.045,0.0111
18.62,1.2039,-3.6364,8.628,-0.0529,0.0238,0.0177
18.64,1.4324,-3.3052,8.8211,-0.0379,-0.0186,-0.0035
18.66,1.0961,-3.2821,8.9835,0.0098,-0.0221,-0.0037
18.68,1.2124,-3.5911,8.5638,0.0072,-0.0184,-0.0121
18.7,1.4024,-3.5815,8.8175,-0.0192,0.0108,-0.0282
18.72,1.3644,-3.4563,8.7463,-0.0194,0.0297,0.0196
18.74,1.1301,-3.4929,8.8905,0.019,0.0113,-0.0463
18.76,1.4369,-3.422,9.0642,0.0198,0.0193,-0.0148
18.78,1.0452,-3.6334,8.9475,-0.0043,-0.0112,0.0094
18.8,1.258,-3.6049,8.8207,-0.0089,0.0025,-0.012
18.82,1.3965,-3.3341,8.766,-0.0156,-0.0418,0.0064
18.84,1.6218,-3.343,9.3358,0.0232,-0.0078,0.0201
18.86,1.4182,-3.6117,8.9587,0.0015,-0.0021,0.024
18.88,1.3415,-3.3772,9.0331,0.0185,0.0177,0.0166
18.9,1.2336,-3.8807,8.5365,0.0263,0.0474,-0.0247
18.92,1.4649,-3.44,8.8792,0.0837,0.1377,-0.0163
18.94,1.4367,-3.7327,8.2838,0.0576,0.1248,0.0196
18.96,0.9757,-3.7977,8.4263,0.0333,0.0513,-0.0378
18.98,1.4671,-3.7401,8.4946,-0.0251,-0.0444,-0.0389
19.0,1.2482,-3.5954,8.4231,-0.1519,-0.182,-0.0648
19.02,1.2279,-3.4995,8.6058,-0.1881,-0.3011,-0.0972
19.04,0.7671,-3.3196,8.448,-0.2373,-0.317,-0.1019
19.06,0.8916,-3.3023,8.8031,-0.2594,-0.1932,-0.1214
19.08,0.7026,-3.3009,9.318,-0.2366,0.0544,-0.0895
19.1,1.1634,-2.9848,10.5325,-0.1699,0.2921,-0.0399
19.12,0.6999,-3.5656,10.8257,-0.0254,0.3769,0.019
19.14,1.7908,-2.9888,10.512,0.0658,0.3758,0.0096
19.16,2.7861,-2.5203,9.9086,0.1835,0.1907,0.0316
19.18,0.7139,-3.7705,8.9882,0.2667,-0.0504,0.0757
19.2,1.6619,-3.4986,8.4205,0.2352,-0.2451,0.106
19.22,0.7519,-3.9943,8.4554,0.2407,-0.3185,0.0753
19.24,1.3645,-3.8232,8.3799,0.1855,-0.2415,0.0903
19.26,1.4264,-3.606,8.4065,0.0688,-0.0984,0.0904
19.28,1.4232,-3.6159,8.4127,0.0151,0.0174,0.0302
19.3,1.3368,-3.4742,8.7747,-0.0624,0.07,0.053
19.32,1.1399,-3.4668,8.6309,-0.0892,0.1401,-0.0408
19.34,1.257,-3.366,8.6879,-0.0893,0.0634,-0.0087
19.36,1.3444,-3.4125,9.0901,-0.0451,0.0602,0.0105
19.38,1.0734,-3.6845,8.6381,-0.0664,-0.0197,-0.014
19.4,1.1353,-3.7307,8.5772,-0.037,-0.009,-0.016
19.42,1.125,-3.7105,8.7798,-0.0205,-0.0332,-0.013
19.44,0.7723,-3.6063,8.9226,0.0049,0.0089,-0.0116
19.46,1.18,-3.6102,8.4785,-0.0275,-0.0083,-0.0243
19.48,1.2428,-3.6035,8.8031,0.0033,-0.0061,0.019
19.5,0.8149,-3.3766,8.7203,0.0019,0.0044,-0.0347
19.52,1.2205,-3.6247,8.8773,0.017,-0.0111,-0.0035
19.54,1.2473,-3.5289,8.8797,0.0075,0.0297,-0.0081
19.56,1.2316,-3.1833,8.9147,0.0011,0.0196,-0.0229
19.58,1.2096,-3.5767,8.5281,0.0369,-0.0184,-0.0507
19.6,1.262,-3.5573,8.4943,0.0614,0.0723,-0.0024
19.62,1.3149,-3.3849,8.5444,0.0757,0.1385,-0.0343
19.64,1.2011,-3.3083,8.4398,0.0909,0.1272,0.039
19.66,1.1846,-3.4069,8.135,0.0157,0.0727,0.034
19.68,0.9799,-3.432,8.3762,0.0487,-0.0806,0.0107
19.7,1.1188,-3.4548,8.5162,-0.1053,-0.176,0.0782
19.72,1.0645,-3.432,8.0733,-0.216,-0.3162,0.088
19.74,0.7618,-3.6314,8.2703,-0.2789,-0.2787,0.127
19.76,0.9753,-3.6324,8.5439,-0.2722,-0.1424,0.1306
19.78,0.8747,-3.669,9.3617,-0.2925,0.089,0.1081
19.8,0.7663,-3.9084,9.9499,-0.1402,0.3356,0.0563
19.82,1.0,-3.6379,10.8059,-0.0348,0.4583,0.0215
19.84,1.3717,-3.458,10.8531,0.1239,0.4041,-0.077
19.86,1.6378,-3.5811,9.6024,0.2268,0.2066,-0.1059
19.88,1.6994,-3.5862,8.8175,0.2634,-0.0243,-0.079
19.9,1.7517,-3.8103,8.1589,0.2789,-0.2425,-0.1028
19.92,1.4393,-3.5726,8.2555,0.2124,-0.3236,-0.1037
19.94,1.4426,-3.2144,8.2024,0.1489,-0.2574,-0.0903
19.96,1.367,-3.3046,8.2261,0.0626,-0.1285,-0.0535
19.98,1.3677,-3.3557,8.4154,-0.032,0.0098,-0.0758
20.0,1.1406,-3.4113,8.5467,-0.0702,0.1233,0.0383
20.02,1.1767,-3.3128,8.5108,-0.0927,0.1229,0.0073
20.04,1.4355,-3.5907,8.6204,-0.0824,0.0956,-0.0116
20.06,1.3522,-3.3289,8.7809,-0.0713,0.0507,0.0292
20.08,1.2344,-3.2357,8.7916,-0.0202,0.0392,0.0281
20.1,1.3695,-3.299,9.0588,-0.0335,-0.024,0.0394
20.12,1.4982,-3.2819,9.2055,0.0237,-0.0215,0.0513
20.14,0.9284,-3.4759,9.1062,-0.0437,-0.0251,0.0081
20.16,1.477,-3.5631,8.8551,-0.0339,0.0191,-0.0164
20.18,1.3102,-3.5097,9.031,-0.0175,0.003,0.0039
20.2,1.5586,-3.3731,9.0745,0.0147,0.0062,0.0056
20.22,1.3798,-3.4886,8.987,0.0138,0.0078,0.0349
20.24,1.4802,-3.4437,8.9691,0.0093,-0.0216,0.0197
20.26,1.2394,-3.1881,9.1582,0.039,-0.0157,-0.0036
20.28,1.6857,-3.5046,9.0697,0.0613,0.0329,0.0338
20.3,1.5808,-3.4704,8.5758,0.0548,0.0667,0.0133
20.32,1.4893,-3.4945,8.5301,0.0206,0.0766,0.006
20.34,1.1863,-3.7899,8.5909,0.0683,0.1168,-0.0136
20.36,1.1135,-3.5794,8.6703,0.0312,0.0457,-0.0403
20.38,1.3733,-3.7105,8.4198,-0.0793,-0.0378,-0.0725
20.4,1.3639,-3.6682,8.3485,-0.1149,-0.1591,-0.0763
20.42,1.1195,-3.2348,8.4962,-0.1673,-0.318,-0.089
20.44,1.0286,-3.4401,8.4368,-0.2488,-0.235,-0.1151
20.46,1.0243,-3.5474,8.7256,-0.2841,-0.1424,-0.0814
20.48,0.9916,-3.298,9.7853,-0.2151,0.0657,-0.0676
20.5,0.8241,-3.3649,9.9238,-0.1511,0.2781,-0.0292
20.52,1.4506,-3.0684,10.9413,0.03,0.4104,0.0086
20.54,1.3958,-3.1911,10.3277,0.0492,0.3561,0.028
20.56,1.6451,-3.4174,9.8044,0.1955,0.175,0.0808
20.58,1.569,-3.6735,8.7541,0.2398,-0.0561,0.0713
20.6,1.7466,-3.4527,8.6,0.2635,-0.2238,0.1003
20.62,1.5598,-3.3539,8.2521,0.2243,-0.2899,0.0954
20.64,1.6098,-3.3692,8.5322,0.1708,-0.2037,0.0979
20.66,1.4007,-3.5185,8.3771,0.0592,-0.0837,0.0544
20.68,1.4124,-3.4462,8.8027,0.008,0.0319,0.0115
20.7,1.451,-3.4399,8.9118,-0.0217,0.1332,0.0211
20.72,1.1357,-3.6259,8.9789,-0.0721,0.114,0.0029
20.74,1.1884,-3.5316,8.7855,-0.0419,0.1275,-0.0144
20.76,1.1981,-3.8158,8.9015,-0.0508,0.019,-0.0335
20.78,1.2761,-3.5747,8.7924,-0.0044,0.0211,-0.0093
20.8,1.159,-3.8689,8.7924,-0.031,-0.0193,-0.0227
20.82,1.2658,-3.4877,8.9835,0.0407,-0.0048,0.0067
20.84,1.2989,-3.5217,8.8744,0.0228,0.0274,-0.0103
20.86,1.0115,-3.5556,8.8637,0.0052,-0.0073,-0.0162
20.88,0.9454,-3.6383,8.5396,-0.0165,-0.0365,0.0085
20.9,1.3902,-3.4873,8.42,0.0221,0.0175,-0.0012
20.92,0.9297,-3.6369,8.6928,-0.0271,-0.0081,-0.0187
20.94,1.4035,-3.6388,8.8037,-0.0311,0.0059,-0.006
20.96,1.1762,-3.6467,8.7642,0.0046,0.0156,-0.0039
20.98,0.9995,-3.7465,8.6382,-0.0472,-0.0418,-0.0202
21.0,1.1277,-3.3661,8.9333,-0.0064,-0.0262,-0.0225
21.02,1.285,-3.6429,8.5599,0.0079,-0.012,-0.0221
21.04,1.2778,-3.4939,9.0584,0.0581,0.0083,0.0169
21.06,1.0775,-3.5544,8.5208,0.0128,0.0175,-0.007
21.08,1.2471,-3.4033,8.6204,0.0619,0.071,0.0023
21.1,1.2931,-3.5054,8.6696,0.0943,0.1419,0.011
21.12,1.3451,-3.3524,8.3565,0.0215,0.1108,0.0086
21.14,1.0027,-3.4705,8.2947,0.0333,0.0775,-0.0052
21.16,1.3354,-3.4001,8.583,-0.0051,-0.0122,0.0577
21.18,1.014,-3.2808,8.3165,-0.0891,-0.221,0.0877
21.2,0.847,-3.5168,8.4535,-0.1611,-0.2597,0.0789
21.22,0.9398,-3.5239,8.4775,-0.2564,-0.3105,0.1225
21.24,0.7796,-3.4382,8.6548,-0.2344,-0.1612,0.1022
21.26,0.9111,-3.3642,9.3051,-0.2039,0.0882,0.097
21.28,1.1012,-3.7936,10.1213,-0.1831,0.2925,0.0793
21.3,1.3396,-3.7284,10.609,-0.0612,0.4081,0.0245
21.32,1.4159,-3.6326,9.8842,0.0831,0.3426,-0.0514
21.34,1.7038,-3.652,9.4869,0.1255,0.1804,-0.0725
21.36,1.6265,-3.63,8.8581,0.2456,-0.074,-0.1115
21.38,1.4653,-3.6668,8.4774,0.2729,-0.2297,-0.1404
21.4,1.3493,-3.4725,8.4307,0.2383,-0.3102,-0.1025
21.42,1.3438,-3.4431,8.5917,0.1255,-0.2455,-0.1122
21.44,1.1296,-3.4616,8.4715,0.0456,-0.1216,-0.1062
21.46,1.4782,-3.0947,8.8556,0.0099,0.0422,-0.0204
21.48,1.2809,-3.2737,8.8024,-0.0447,0.0617,-0.0243
21.5,1.3617,-3.3583,8.7668,-0.0864,0.1537,0.0027
21.52,1.6115,-3.4359,9.0163,-0.0747,0.171,0.0032
21.54,1.2535,-3.5826,8.906,-0.0658,0.0248,0.0337
21.56,1.335,-3.4366,9.0985,-0.0613,0.0114,-0.0067
21.58,1.1591,-3.4262,8.887,-0.0573,-0.049,0.0166
21.6,1.2521,-3.5796,9.0123,0.0044,-0.0173,0.0114
21.62,1.3985,-3.5155,8.9586,-0.0067,-0.0385,0.0096
21.64,1.5995,-3.3537,9.3229,0.0182,-0.0012,0.0023
21.66,1.5943,-3.3051,9.0938,0.0407,-0.0009,-0.0353
21.68,1.2258,-3.4875,8.8859,-0.0105,-0.0185,0.0003
21.7,1.616,-3.4409,9.0159,0.0309,0.0598,0.015
21.72,1.3711,-3.4778,8.8791,0.0942,0.0977,0.0255
21.74,1.5229,-3.5277,9.0203,0.0655,0.1372,0.0075
21.76,1.4034,-3.4894,8.9554,0.0634,0.1285,-0.0205
21.78,1.3552,-3.5503,8.913,0.0366,0.0936,0.006
21.8,1.628,-3.3183,8.8713,-0.0465,-0.0412,-0.0397
21.82,1.5327,-3.6724,8.7778,-0.1247,-0.1833,-0.0966
21.84,1.2619,-3.5171,8.5816,-0.2304,-0.2914,-0.0845
21.86,1.2845,-3.3878,8.7417,-0.2298,-0.2649,-0.1101
21.88,0.9371,-3.3036,8.7556,-0.271,-0.1107,-0.1184
21.9,1.0182,-3.2328,9.2802,-0.2319,0.0781,-0.1065
21.92,1.4569,-3.4061,10.5415,-0.1602,0.3115,-0.0751
21.94,1.2715,-3.2448,10.6269,0.0076,0.4008,-0.0007
21.96,1.5541,-3.3094,10.151,0.0598,0.3304,0.0244
21.98,1.7713,-3.3271,9.7859,0.1903,0.1585,0.0311
22.0,1.6994,-3.6117,8.6226,0.2266,-0.0451,0.1031
22.02,1.6743,-3.3613,8.4426,0.2568,-0.221,0.0695
22.04,1.6755,-3.4908,8.0909,0.2181,-0.2822,0.0981
22.06,1.4302,-3.6183,8.4418,0.1456,-0.213,0.0895
22.08,1.404,-3.7818,8.2876,0.027,-0.1054,0.0372
22.1,1.4609,-3.8477,8.2108,-0.0443,0.037,0.0392
22.12,1.0048,-3.6598,8.1931,-0.0849,0.0775,0.005
22.14,0.8213,-3.7474,8.5142,-0.0467,0.1193,0.0109
22.16,1.2101,-3.8586,8.3497,-0.0523,0.0759,-0.0177
22.18,1.0142,-3.7024,8.7396,-0.0745,0.0518,-0.0162
22.2,1.1998,-3.5594,8.6889,-0.0631,-0.0352,-0.0428
22.22,1.0312,-3.6512,8.8696,-0.0691,-0.0288,-0.0322
22.24,1.395,-3.3746,8.809,-0.022,0.0084,0.0442
22.26,1.1222,-3.7972,8.4965,-0.0255,-0.0351,-0.0198
22.28,1.1293,-3.6042,8.76,0.0271,-0.0217,0.0232
22.3,1.0127,-3.4554,8.5711,-0.0186,0.004,0.0249
22.32,1.3868,-3.7247,8.6677,-0.0383,-0.0194,-0.0217
22.34,1.4599,-3.584,8.7008,0.0242,-0.0207,-0.0024
22.36,1.3426,-3.4854,8.628,0.0187,0.0037,-0.0092
22.38,1.2238,-3.6671,8.4812,0.0184,0.0455,0.0027
22.4,1.5392,-3.4395,8.5378,0.0638,0.0969,-0.015
22.42,1.2341,-3.5422,8.5129,0.065,0.1087,0.002
22.44,1.4275,-3.3177,8.3416,0.0412,0.1046,0.0441
22.46,1.344,-3.4345,8.4639,-0.0159,0.0029,0.0388
22.48,1.1481,-3.6761,8.1921,-0.0606,-0.0928,0.062
22.5,1.4027,-3.4875,8.2624,-0.1452,-0.2233,0.0904
22.52,1.0809,-3.4443,8.3863,-0.2081,-0.2684,0.1371
22.54,0.7216,-3.8094,8.359,-0.2498,-0.203,0.0994
22.56,0.9907,-3.7793,9.0576,-0.264,-0.0358,0.0832
22.58,0.9878,-3.6986,9.4161,-0.1864,0.1825,0.0783
22.6,1.436,-3.5841,10.6337,-0.0433,0.3756,0.0459
22.62,1.3784,-3.8628,10.3274,-0.0008,0.3652,-0.0262
22.64,1.8102,-3.7757,9.4915,0.1562,0.2117,-0.0535
22.66,1.9343,-3.6928,9.0183,0.2079,0.0556,-0.1107
22.68,1.735,-3.7182,8.3269,0.2124,-0.1532,-0.0923
22.7,1.9801,-3.5794,8.4509,0.234,-0.2389,-0.097
22.72,1.5176,-3.5719,8.2544,0.1342,-0.2492,-0.0919
22.74,1.5219,-3.4855,8.2511,0.0749,-0.112,-0.0747
22.76,1.2324,-3.6125,8.3257,-0.0096,0.0109,-0.0478
22.78,1.8667,-3.3979,8.9576,-0.0229,0.0776,0.0143
22.8,1.3804,-3.4342,8.6347,-0.0743,0.1284,0.0136
22.82,1.5994,-3.4774,8.9504,-0.0727,0.1035,0.0348
22.84,1.6724,-3.4874,9.0253,-0.0378,0.044,-0.0104
22.86,1.4555,-3.5653,8.9654,-0.043,0.0452,-0.0063
22.88,1.3669,-3.6135,8.9393,-0.0388,0.0025,-0.0245
22.9,1.6334,-3.5302,9.0596,-0.0092,-0.0199,0.022
22.92,1.6021,-3.5687,9.1031,0.0179,0.0117,0.0193
22.94,1.6641,-3.5508,9.0794,0.006,0.031,0.015
22.96,1.5917,-3.245,8.9923,0.0343,-0.0247,-0.0218
22.98,1.683,-3.3007,9.078,0.0232,-0.022,0.0176
23.0,1.6909,-3.6455,9.082,0.0315,0.0549,0.0167
23.02,1.6462,-3.5447,8.6984,0.0597,0.0402,0.0065
23.04,1.5825,-3.7174,8.8856,0.0589,0.0868,0.0044
23.06,1.5763,-3.6881,8.8478,0.0408,0.1287,-0.0116
23.08,1.6576,-3.5022,8.739,0.0148,0.1128,0.0155
23.1,1.4766,-3.5846,8.685,-0.0013,-0.0166,-0.0406
23.12,1.6028,-3.5076,8.6913,-0.0526,-0.0689,-0.0557
23.14,1.2768,-3.5319,8.2927,-0.1299,-0.1907,-0.0596
23.16,1.4965,-3.348,8.5928,-0.1901,-0.2772,-0.0739
23.18,1.359,-3.5177,8.5041,-0.2326,-0.1773,-0.078
23.2,1.2195,-3.5599,8.74,-0.2391,-0.0194,-0.0885
23.22,0.9138,-3.5092,9.4196,-0.1969,0.1626,-0.0636
23.24,1.4549,-3.3856,10.4521,-0.0903,0.3662,-0.0213
23.26,1.5892,-3.4738,10.0724,0.0293,0.3921,0.0068
23.28,1.609,-3.3889,9.4585,0.1488,0.2993,0.0704
23.3,2.1711,-3.3015,9.3442,0.2159,0.0875,0.0798
23.32,1.6689,-3.3971,8.6737,0.2244,-0.1145,0.1295
23.34,1.6686,-3.7154,8.6448,0.2361,-0.237,0.1077
23.36,1.521,-3.4047,8.8058,0.1658,-0.2035,0.0923
23.38,1.3384,-3.6614,8.3635,0.0699,-0.1499,0.0598
23.4,1.163,-3.7762,8.5804,-0.0387,-0.0565,0.0702
23.42,1.4423,-3.5779,8.5226,-0.0112,0.0468,-0.0003
23.44,1.3644,-3.7123,8.5623,-0.0538,0.102,-0.0196
23.46,1.3635,-3.6571,8.6268,-0.0578,0.0937,-0.0256
23.48,1.2161,-3.6821,8.5771,-0.0701,0.0628,0.0009
23.5,0.9418,-3.6995,8.807,-0.0354,-0.002,-0.0211
23.52,1.282,-3.5634,8.6948,-0.0499,-0.0343,-0.026
23.54,1.0746,-3.7721,8.5268,-0.0245,-0.0409,-0.0236
23.56,1.3014,-3.4423,8.6567,-0.0495,0.018,-0.0069
23.58,1.3091,-3.4686,8.8541,0.0275,0.0251,0.0179
23.6,1.2607,-3.9224,8.5916,-0.0329,-0.0032,-0.0338
23.62,1.4597,-3.477,8.9569,0.0089,0.0348,0.0132
23.64,1.4661,-3.8227,8.5168,-0.0398,-0.0387,-0.0015
23.66,1.4503,-3.4699,8.9753,0.0046,0.0132,-0.0024
23.68,1.5095,-3.7531,8.7908,-0.013,0.0307,0.0222
23.7,1.021,-3.5139,8.3729,-0.0494,-0.0042,0.0152
23.72,1.3448,-3.5422,8.5249,-0.0438,-0.0351,-0.0144
23.74,1.277,-3.782,8.469,-0.0203,-0.0344,-0.0365
23.76,1.2564,-3.3914,8.399,0.0307,-0.0107,-0.0334
23.78,1.5914,-3.6723,8.6415,0.0586,0.0808,-0.0051
23.8,1.4225,-3.3919,8.614,0.0756,0.1111,-0.0222
23.82,0.8759,-3.4666,8.5904,0.0571,0.1167,-0.006
23.84,0.9288,-3.4523,8.4757,0.0035,0.1056,0.0286
23.86,1.4112,-3.4812,8.4915,-0.0185,-0.004,0.0616
23.88,1.1776,-3.5171,8.3164,-0.0872,-0.1294,0.0552
23.9,1.3792,-3.6005,8.3505,-0.1447,-0.2165,0.1106
23.92,1.2705,-3.6053,8.3718,-0.2647,-0.2578,0.0895
23.94,1.3721,-3.7448,8.6448,-0.244,-0.1075,0.1111
23.96,1.066,-3.9411,9.0474,-0.2202,0.0878,0.0835
23.98,0.9936,-3.7661,9.6928,-0.1861,0.239,0.0492
24.0,1.2431,-3.829,10.3836,-0.0823,0.3628,0.0276
24.02,1.432,-3.7519,9.7758,0.0401,0.3057,-0.0525
24.04,1.7863,-3.77,9.249,0.1464,0.1804,-0.0784
24.06,2.207,-3.6832,9.0903,0.21,0.0075,-0.1101
24.08,2.0769,-3.6513,8.5619,0.2178,-0.1728,-0.0883
24.1,1.885,-3.4998,8.4537,0.2039,-0.2599,-0.0495
24.12,1.5506,-3.5717,8.3859,0.1619,-0.2548,-0.1016
24.14,1.6113,-3.6563,8.5135,0.0293,-0.0687,-0.0728
24.16,1.3931,-3.3652,8.5973,0.012,0.0191,-0.0323
24.18,1.6147,-3.149,8.7315,-0.075,0.0711,-0.0333
24.2,1.6525,-3.3281,8.8949,-0.0674,0.1202,0.0128
24.22,1.2907,-3.4834,8.7574,-0.096,0.106,0.0139
24.24,1.1374,-3.5014,8.6666,-0.0525,0.0324,0.0016
24.26,1.5859,-3.3767,9.175,0.0325,0.0233,0.0557
24.28,1.4912,-3.4813,9.2374,0.0129,-0.0119,0.0171
24.3,1.6958,-3.47,9.0751,-0.0173,-0.0028,0.002
24.32,1.7364,-3.5525,8.8342,-0.0236,-0.0097,0.0167
24.34,1.3366,-3.4652,8.7998,0.0051,-0.008,-0.0213
24.36,1.8491,-3.3408,9.2149,0.0084,0.0126,0.0083
24.38,1.6128,-3.5226,8.8971,-0.0098,0.0377,0.0177
24.4,1.5275,-3.4539,8.7724,-0.0099,-0.0037,-0.0189
24.42,1.615,-3.3973,9.0227,-0.0229,0.06,-0.0189
24.44,2.0207,-3.4103,9.1321,0.0,0.0188,0.0119
24.46,1.3665,-3.474,8.7617,-0.0321,-0.0051,0.0076
24.48,1.4238,-3.5422,9.0236,0.0014,-0.0238,0.0347
24.5,1.7122,-3.4284,8.9203,-0.0005,-0.0026,0.0245
24.52,1.4392,-3.3121,9.0925,0.0078,0.0069,0.014
24.54,1.6616,-3.5603,8.8436,0.014,-0.0044,0.0027
24.56,1.2915,-3.5471,8.9901,0.0274,0.0363,-0.0117
24.58,1.4669,-3.6454,8.6643,0.0607,0.0925,-0.0207
24.6,1.411,-3.7809,8.6116,0.0462,0.1327,0.0069
24.62,1.1963,-3.6445,8.6993,0.0539,0.1161,-0.0334
24.64,1.9265,-3.5114,8.5653,0.0088,0.0536,-0.0474
24.66,1.2233,-3.6606,8.4948,-0.0455,-0.0721,-0.0792
24.68,1.5698,-3.5533,8.441,-0.135,-0.2009,-0.0704
24.7,1.3872,-3.6502,8.0497,-0.2495,-0.2571,-0.1099
24.72,1.1949,-3.525,8.6568,-0.2517,-0.213,-0.0794
24.74,1.0026,-3.2549,8.7478,-0.2869,-0.0523,-0.145
24.76,0.7882,-3.4157,9.1646,-0.2294,0.1733,-0.0733
24.78,1.163,-3.2617,9.8472,-0.1256,0.3596,-0.0464
24.8,1.5889,-3.228,10.3887,0.0194,0.366,0.0107
24.82,1.5416,-3.337,9.7188,0.1086,0.265,0.0248
24.84,1.6742,-3.4687,8.6261,0.1406,0.0437,0.0987
24.86,1.6759,-3.4381,8.5544,0.2416,-0.1346,0.1254
24.88,1.5507,-3.4644,8.1247,0.2252,-0.2849,0.1103
24.9,1.7934,-3.613,8.2829,0.1788,-0.197,0.1091
24.92,1.1319,-3.6457,8.3595,0.0804,-0.1695,0.0796
24.94,1.4684,-3.6257,8.5953,0.0448,-0.0183,0.0494
24.96,1.4066,-3.7536,8.2398,-0.0629,0.0632,0.0072
24.98,1.2703,-3.6922,8.408,-0.0559,0.1222,0.0332
25.0,1.3455,-3.7522,8.4758,-0.0842,0.1606,-0.0443
25.02,1.361,-3.6907,8.8759,-0.0558,0.098,-0.0298
25.04,0.7312,-3.8482,8.7212,-0.0559,0.021,-0.0053
25.06,0.7297,-3.8696,8.552,-0.0262,-0.0142,-0.0309
25.08,1.6102,-3.4528,9.0512,-0.0311,0.007,-0.0025
25.1,1.2341,-3.8861,8.9927,0.0334,-0.0266,0.0022
25.12,0.3228,-4.2825,8.4751,-0.0214,-0.0539,-0.0229
25.14,1.0749,-4.024,8.7336,0.0147,-0.0527,-0.003
25.16,1.785,-3.4429,9.008,0.0428,0.0086,-0.0227
25.18,1.198,-3.7322,8.454,0.0595,0.0303,-0.0397
25.2,1.5526,-3.4239,8.8976,0.0674,0.0933,-0.018
25.22,1.1925,-3.6808,8.4218,0.0544,0.1168,0.0092
25.24,1.2707,-3.5406,8.3777,0.0466,0.1115,-0.0009
25.26,1.4188,-3.3503,8.4391,0.0223,0.0779,0.0206
25.28,1.4162,-3.5297,8.2697,-0.0757,-0.1222,0.0542
25.3,1.5425,-3.6682,8.3128,-0.149,-0.1832,0.0737
25.32,1.2126,-3.6322,8.0642,-0.2085,-0.3076,0.0696
25.34,0.9882,-3.8448,8.1052,-0.3319,-0.2448,0.0839
25.36,1.2438,-3.7141,8.9195,-0.2862,-0.1146,0.1036
25.38,1.1121,-3.5079,9.4821,-0.2189,0.1784,0.0527
25.4,1.1362,-3.8356,10.178,-0.148,0.3239,0.0404
25.42,1.4227,-3.9389,10.3264,-0.0248,0.4373,-0.0178
25.44,2.2138,-3.5006,10.4644,0.1557,0.3144,-0.0195
25.46,1.8195,-4.0479,9.1459,0.2186,0.1212,-0.0852
25.48,2.1681,-3.8057,8.957,0.2568,-0.1174,-0.1079
25.5,2.0688,-3.6426,8.6765,0.298,-0.2325,-0.0902
25.52,1.5712,-3.4677,8.4308,0.2106,-0.257,-0.1256
25.54,1.6124,-3.5056,8.3605,0.095,-0.1741,-0.0469
25.56,1.5345,-3.5448,8.0894,0.0197,-0.0767,-0.0613
25.58,1.7249,-3.4349,8.6242,-0.0444,0.081,-0.0312
25.6,1.4683,-3.3797,8.7434,-0.0447,0.1365,0.0152
25.62,1.6141,-3.4976,9.0488,-0.0846,0.1167,-0.0135
25.64,1.6594,-3.3558,9.1079,-0.0407,0.1101,0.031
25.66,1.7017,-3.5474,8.9168,-0.1297,0.0428,0.0099
25.68,1.4598,-3.5837,9.0666,-0.0529,0.0,-0.0041
25.7,1.5484,-3.5345,9.1596,0.0133,0.0064,0.0201
25.72,1.4765,-3.3509,9.1737,0.0366,-0.0174,-0.0103
25.74,1.5927,-3.7812,9.1629,0.0316,0.0322,-0.01
25.76,1.6573,-3.4997,8.9731,-0.0056,0.018,0.0065
25.78,1.5177,-3.5789,8.914,0.0092,0.0047,0.0131
25.8,1.9424,-3.6162,8.9884,0.0374,0.008,0.0091
25.82,1.5043,-3.4678,9.1372,0.003,0.0562,0.012
25.84,1.7174,-3.3569,9.1604,-0.0186,0.0179,0.0229
25.86,1.4843,-3.3229,8.8372,-0.0134,-0.0107,-0.0147
25.88,1.4886,-3.3762,8.762,-0.0259,0.002,-0.0231
25.9,1.4277,-3.4623,8.9602,0.0146,0.017,-0.0218
25.92,1.5043,-3.3793,8.74,0.0623,0.0197,0.0266
25.94,1.7077,-3.5208,8.798,0.0619,0.1154,0.0146
25.96,1.995,-3.2959,8.8174,0.0919,0.131,0.033
25.98,1.3874,-3.6894,8.5274,0.0101,0.0767,-0.0013
26.0,1.4934,-3.6556,8.2122,-0.0195,0.0197,-0.0205
26.02,1.2356,-3.6698,8.1181,-0.0346,-0.0824,-0.0643
26.04,1.4978,-3.381,8.3087,-0.0921,-0.1787,-0.081
26.06,1.4307,-3.4841,8.2173,-0.2094,-0.2949,-0.0855
26.08,1.2428,-3.4407,8.2604,-0.2333,-0.2247,-0.1088
26.1,0.8977,-3.5162,8.4757,-0.2672,-0.0754,-0.0926
26.12,1.244,-3.2384,9.6598,-0.2126,0.1501,-0.0589
26.14,1.4362,-3.3701,10.0016,-0.1199,0.3596,-0.0061
26.16,1.4347,-3.5296,10.1733,-0.0068,0.4011,-0.022
26.18,1.6001,-3.5003,9.7346,0.1007,0.2833,0.042
26.2,1.866,-3.2554,9.2815,0.1884,0.1225,0.0452
26.22,1.7174,-3.5091,8.5981,0.2521,-0.047,0.1253
26.24,1.6294,-3.701,8.3613,0.232,-0.211,0.0857
26.26,1.5435,-3.5237,8.2251,0.2103,-0.2757,0.078
26.28,1.4254,-3.5482,8.3338,0.0916,-0.1809,0.1203
26.3,1.3644,-3.8759,8.3283,0.0002,-0.0646,0.0196
26.32,1.2075,-3.5558,8.3059,-0.0618,0.0498,0.0458
26.34,1.2914,-3.9271,8.5307,-0.0618,0.096,-0.0007
26.36,1.5816,-3.5078,8.6775,-0.0334,0.1227,0.0279
26.38,1.4055,-3.6596,8.3828,-0.0661,0.0474,-0.0265
26.4,1.4188,-3.6582,8.5749,-0.0273,0.0209,-0.0029
26.42,1.4215,-3.4668,8.7973,-0.0361,0.03,0.0108
26.44,1.449,-3.7577,8.6231,-0.0173,-0.0144,-0.0404
26.46,1.5328,-3.6277,8.893,0.0312,0.0221,0.0095
26.48,1.373,-3.3885,8.4977,0.0203,-0.0283,-0.014
26.5,1.4849,-3.9218,8.6475,0.0302,-0.0009,0.0367
26.52,1.5701,-3.8151,8.8028,0.0356,0.0081,0.0173
26.54,1.3392,-3.631,8.6573,-0.0118,0.0071,0.0089
26.56,1.3643,-3.6145,8.7626,-0.0006,0.024,0.0221
26.58,1.3251,-3.5242,8.8952,-0.0407,-0.0062,-0.0109
26.6,1.2833,-3.6227,8.7986,0.0014,-0.0149,-0.0357
26.62,1.5548,-3.3389,9.0322,0.0116,-0.0461,-0.0105
26.64,1.398,-3.7554,8.6827,0.0189,-0.0381,-0.0103
26.66,1.4232,-3.6581,8.6724,0.036,-0.0001,-0.0284
26.68,1.7371,-3.6728,8.8183,0.0747,0.0403,-0.0285
26.7,1.7493,-3.4167,8.74,0.0751,0.0402,-0.0054
26.72,1.5715,-3.4055,8.5027,0.0637,0.09,-0.017
26.74,1.5258,-3.5208,8.475,0.0278,0.0837,-0.0204
26.76,1.4705,-3.4807,8.6593,0.0071,0.0497,0.0518
26.78,1.5734,-3.2016,8.7162,-0.0141,-0.0484,0.0617
26.8,1.2098,-3.3589,8.3677,-0.182,-0.2366,0.0757
26.82,1.6112,-3.544,8.6668,-0.1795,-0.2854,0.1004
26.84,1.2493,-3.505,8.7079,-0.2238,-0.2056,0.0987
26.86,0.8863,-3.5851,8.7996,-0.2293,-0.0336,0.0901
26.88,1.4536,-3.4969,9.9329,-0.187,0.1784,0.0495
26.9,1.1427,-3.6609,10.1118,-0.1249,0.3684,0.0205
26.92,1.6061,-3.8674,10.2853,0.0081,0.4135,0.0066
26.94,1.9342,-3.7335,10.1345,0.1676,0.2962,-0.0395
26.96,1.8139,-3.6672,9.102,0.2011,0.0737,-0.051
26.98,1.728,-3.6936,8.5074,0.2145,-0.1505,-0.1204
27.0,2.1051,-3.5834,8.4784,0.2483,-0.2667,-0.1126
27.02,1.5075,-3.5568,8.4384,0.1616,-0.2489,-0.0828
27.04,1.373,-3.3153,8.2103,0.0737,-0.2124,-0.086
27.06,1.5403,-3.4673,8.481,-0.0014,-0.0179,-0.027
27.08,1.5939,-3.3233,8.5786,-0.0487,0.0767,-0.0187
27.1,1.5141,-3.4864,8.6933,-0.1048,0.0861,0.0032
27.12,1.4869,-3.2946,8.6955,-0.0727,0.1048,-0.0054
27.14,1.6611,-3.3853,8.8183,-0.0573,0.0588,0.0136
27.16,1.6379,-3.5819,8.6773,-0.0385,0.054,-0.0085
27.18,1.4962,-3.2217,8.8723,-0.0158,0.0145,0.0336
27.2,1.4884,-3.5897,8.8689,-0.0298,-0.0174,0.0531
27.22,1.5264,-3.6442,8.7766,0.0087,-0.0317,0.0356
27.24,1.7592,-3.3735,8.7013,-0.0306,0.0434,0.001
27.26,1.4062,-3.6171,8.7733,0.0113,0.0185,0.0117
27.28,1.7435,-3.3993,9.2081,0.0175,0.012,-0.0107
27.3,1.3374,-3.4723,8.8204,-0.0173,-0.0301,0.0138
27.32,1.4974,-3.6185,8.9317,0.032,0.0025,0.0131
27.34,1.197,-3.906,8.5149,0.0274,-0.0152,-0.0573
27.36,1.5736,-3.3854,8.451,0.0525,0.0308,0.0049
27.38,1.5219,-3.434,8.5926,0.1022,0.1014,-0.0089
27.4,1.473,-3.7996,8.442,0.0503,0.0924,0.0299
27.42,1.4241,-3.4978,8.5449,0.0308,0.1258,-0.0221
27.44,1.3873,-3.3512,8.3179,-0.0151,0.035,-0.0312
27.46,1.4913,-3.6631,8.3804,-0.068,-0.1021,-0.0365
27.48,1.1564,-3.4505,8.0979,-0.1922,-0.2603,-0.1099
27.5,1.262,-3.5966,8.1664,-0.255,-0.3211,-0.0657
27.52,0.8937,-3.513,8.3867,-0.2849,-0.2157,-0.1265
27.54,0.9179,-3.4688,8.6278,-0.272,-0.0737,-0.134
27.56,0.9,-3.2803,9.7504,-0.2262,0.2036,-0.0891
27.58,1.3393,-3.3575,9.8596,-0.0963,0.417,-0.0249
27.6,1.2999,-3.4159,9.9838,0.0454,0.4297,0.0057
27.62,1.8325,-3.352,9.9032,0.1926,0.3013,0.0513
27.64,1.9342,-3.4475,9.2874,0.3023,0.0887,0.0907
27.66,1.864,-3.4823,8.3516,0.2929,-0.1819,0.108
27.68,1.433,-3.6057,8.2933,0.2147,-0.323,0.0996
27.7,1.7208,-3.6263,8.592,0.2045,-0.2962,0.1134
27.72,1.6126,-3.4848,8.4299,0.098,-0.1679,0.0687
27.74,1.1995,-3.6688,8.3642,-0.0161,-0.0256,0.0558
27.76,1.4426,-3.5049,8.3868,-0.0525,0.0933,0.0146
27.78,1.7217,-3.6095,8.5744,-0.0637,0.138,-0.01
27.8,1.5521,-3.6718,8.7061,-0.0277,0.1651,0.0134
27.82,1.2022,-3.8908,8.5313,-0.079,0.0529,-0.0368
27.84,1.3752,-3.7639,8.6638,-0.0772,0.0259,0.0028
27.86,1.585,-3.3241,8.8601,0.0161,-0.0194,-0.004
27.88,1.4603,-3.6724,8.8369,0.0372,-0.0033,-0.0204
27.9,1.3231,-3.6479,8.5812,-0.019,-0.0404,-0.0424
27.92,1.5001,-3.3819,8.8424,0.011,0.0095,0.0064
27.94,1.3594,-3.4976,8.3955,-0.0365,0.0004,-0.0263
27.96,1.5795,-3.6856,8.7752,-0.0287,0.0483,0.0126
27.98,1.7617,-3.5272,8.965,-0.0075,0.0135,-0.0064
28.0,1.5426,-3.4309,8.9567,-0.0128,0.0071,0.0202
28.02,1.4215,-3.5346,8.9204,0.0125,0.0041,-0.0108
28.04,1.2995,-3.4528,8.6615,0.0176,-0.0055,-0.0204
28.06,1.587,-3.6268,8.848,0.0275,0.0222,-0.021
28.08,1.685,-3.4038,9.0105,0.0615,0.0631,0.0101
28.1,1.5316,-3.4216,8.5186,0.0853,0.1107,-0.0216
28.12,1.5813,-3.1327,8.721,0.0559,0.1277,0.0224
28.14,1.5737,-3.4277,8.6392,0.0167,0.0484,0.0355
28.16,1.6796,-3.4017,8.7261,-0.0563,-0.0547,0.0316
28.18,1.5829,-3.696,8.441,-0.1269,-0.173,0.0564
28.2,1.4924,-3.2447,8.6384,-0.1413,-0.2426,0.1208
28.22,1.4208,-3.3612,8.8444,-0.2026,-0.2421,0.0978
28.24,1.0962,-3.4789,8.9742,-0.2393,-0.1119,0.0882
28.26,1.3383,-3.4077,9.2772,-0.2246,0.0964,0.1256
28.28,1.0216,-3.7664,9.6648,-0.1524,0.299,0.0397
28.3,1.6818,-3.728,10.4742,0.01,0.4175,0.0047
28.32,1.9117,-3.5729,10.1884,0.0869,0.3154,-0.0131
28.34,1.8204,-3.7254,9.3056,0.1895,0.1486,-0.0571
28.36,1.9325,-3.4823,8.9176,0.235,-0.0701,-0.0804
28.38,1.8277,-3.5809,8.3798,0.2209,-0.2509,-0.0851
28.4,1.7136,-3.4765,8.4655,0.183,-0.2735,-0.0549
28.42,1.5167,-3.5941,8.5185,0.0933,-0.2137,-0.0214
28.44,1.6991,-3.3678,8.5965,0.0711,-0.0822,-0.0231
28.46,1.5562,-3.4138,8.4589,-0.0175,0.0177,-0.0424
28.48,1.4636,-3.4245,8.7952,-0.0617,0.1048,0.0248
28.5,1.4558,-3.4605,8.7369,-0.0857,0.1436,0.0174
28.52,1.3725,-3.4447,8.8903,-0.0631,0.0841,0.0462
28.54,1.3607,-3.4936,8.7049,-0.0457,0.0579,-0.0025
28.56,1.8127,-3.3908,9.0907,-0.0299,0.0535,0.0085
28.58,1.4632,-3.3629,8.8042,-0.0399,-0.0267,-0.0061
28.6,1.327,-3.622,8.8156,-0.0314,-0.0124,0.0086
28.62,1.545,-3.4866,8.7856,-0.0051,0.0128,-0.0045
28.64,1.2674,-3.5236,8.6992,-0.0046,0.0342,0.0056
28.66,1.734,-3.5657,9.3124,0.0046,-0.0047,0.0094
28.68,1.3539,-3.63,8.6719,-0.0163,-0.0261,0.0068
28.7,1.3337,-3.4685,8.8509,-0.0094,0.0137,0.0002
28.72,1.6208,-3.4128,8.9246,0.0016,0.0033,-0.0068
28.74,1.6024,-3.465,8.6123,0.0317,0.0115,-0.0072
28.76,1.605,-3.512,8.6781,0.0806,0.07,0.0323
28.78,1.4696,-3.8204,8.5263,0.0363,0.088,-0.0052
28.8,1.5656,-3.4743,8.6911,0.0872,0.1555,0.0162
28.82,1.5813,-3.73,8.407,0.059,0.0908,-0.0136
28.84,1.431,-3.694,8.2744,-0.0222,-0.028,-0.0315
28.86,1.162,-3.7303,8.0616,-0.1473,-0.2076,-0.0671
28.88,1.3265,-3.5099,8.4107,-0.1599,-0.3117,-0.0643
28.9,1.1207,-3.5744,8.1408,-0.2919,-0.3164,-0.1332
28.92,1.1021,-3.4951,8.6074,-0.3178,-0.1868,-0.1194
28.94,0.7512,-3.4319,8.8001,-0.2935,0.0432,-0.098
28.96,1.326,-3.4288,10.0114,-0.1694,0.3056,-0.0608
28.98,1.1295,-3.3164,9.888,-0.069,0.4185,-0.0252
29.0,1.6124,-3.2575,10.2344,0.092,0.4027,0.0289
29.02,1.8474,-3.5624,9.149,0.1929,0.1926,0.063
29.04,1.7445,-3.3703,8.6339,0.2505,-0.043,0.0698
29.06,1.6749,-3.6042,7.9784,0.2407,-0.2413,0.0979
29.08,1.6685,-3.5571,8.2929,0.2207,-0.3191,0.1019
29.1,1.4865,-3.6285,8.301,0.1233,-0.2706,0.0954
29.12,1.5076,-3.6348,8.2577,0.0674,-0.136,0.0676
29.14,1.293,-3.6523,8.309,0.0125,-0.0008,0.0442
29.16,1.3227,-3.6608,8.3888,-0.0702,0.1329,0.0541
29.18,1.4853,-3.3496,8.4435,-0.0845,0.1258,0.0027
29.2,1.3415,-3.5602,8.6077,-0.0737,0.0991,-0.0453
29.22,1.226,-3.6089,8.6934,-0.0486,0.0353,-0.0089
29.24,1.4471,-3.5316,8.8762,-0.0052,-0.0188,-0.0169
29.26,1.4816,-3.461,8.6515,-0.0273,0.0051,-0.0107
29.28,1.3703,-3.5501,8.7642,-0.0211,-0.0424,-0.0156
29.3,1.4532,-3.3996,8.835,0.0068,-0.0212,-0.0434
29.32,1.4692,-3.4964,8.6333,-0.0309,-0.0251,0.0061
29.34,1.5886,-3.4794,8.9207,0.0153,-0.0097,0.0361
29.36,1.5557,-3.5283,8.7967,0.0347,0.0212,-0.0057
29.38,1.8883,-3.4156,8.9779,0.0013,0.0145,0.0062
29.4,1.4268,-3.4912,8.765,0.0001,-0.0131,0.0091
29.42,1.6039,-3.4885,8.6724,-0.0217,-0.0327,0.0054
29.44,1.5018,-3.5571,8.6861,0.0003,0.0086,-0.0071
29.46,1.5464,-3.5024,8.9144,0.0015,0.0029,0.0011
29.48,1.6523,-3.4252,8.9125,0.0219,-0.0147,-0.021
29.5,1.5353,-3.4631,8.9272,0.0231,-0.0203,-0.0113
29.52,1.6176,-3.5137,8.9396,0.0101,0.0118,0.0299
29.54,1.7576,-3.5526,9.0451,0.055,0.0358,0.0023
29.56,1.8724,-3.4402,8.6576,0.0323,0.0241,-0.0233
29.58,1.3712,-3.4286,8.6883,0.0037,0.0572,-0.0001
29.6,1.8236,-3.3539,8.8191,0.0577,0.1152,-0.0111
29.62,1.7067,-3.3814,8.8912,0.0553,0.122,0.0237
29.64,1.4531,-3.3383,8.5705,0.0075,0.0858,-0.0129
29.66,1.8173,-3.3757,8.7697,-0.0512,-0.0623,0.0653
29.68,1.4118,-3.6183,8.3359,-0.1431,-0.2058,0.0626
29.7,1.4283,-3.4239,8.5181,-0.1808,-0.2557,0.1102
29.72,1.306,-3.5965,8.3255,-0.2737,-0.3071,0.1032
29.74,1.3011,-3.6182,8.8479,-0.2873,-0.1311,0.108
29.76,1.4098,-3.5425,9.3522,-0.2333,0.0969,0.0822
29.78,1.3414,-3.7584,9.9566,-0.131,0.3018,0.0466
29.8,1.6744,-3.5338,10.1861,-0.0161,0.382,0.0296
29.82,2.0272,-3.6446,10.3621,0.0991,0.3422,-0.0384
29.84,1.5264,-3.7181,8.9816,0.1762,0.1235,-0.0921
29.86,1.9504,-3.3725,8.8174,0.2527,-0.0995,-0.1456
29.88,1.9538,-3.5459,8.5715,0.2566,-0.2243,-0.105
29.9,1.4184,-3.6413,8.2536,0.1731,-0.2822,-0.1141
29.92,1.7157,-3.4858,8.389,0.1111,-0.2144,-0.0569
29.94,1.547,-3.3873,8.3301,-0.0247,-0.0902,-0.0615
29.96,1.6909,-3.3141,8.8164,0.022,0.0326,-0.0137
29.98,1.4807,-3.5904,8.4458,-0.0545,0.0765,-0.0196
30.0,1.86,-3.3405,8.9807,-0.0261,0.1244,-0.0041
30.02,1.6157,-3.4951,8.6548,-0.0474,0.0604,0.0374
30.04,1.584,-3.4756,8.8779,-0.0715,0.0124,0.0129
30.06,1.475,-3.3762,8.9006,-0.0552,0.005,0.01
30.08,1.3948,-3.5746,8.886,-0.014,-0.0117,0.0075
30.1,1.4213,-3.7266,8.8978,-0.0033,-0.0364,-0.0346
30.12,1.5727,-3.4661,8.7258,0.0168,0.0248,0.0059
30.14,1.5865,-3.5912,8.7048,-0.0207,0.0024,0.0074
30.16,1.3296,-3.6153,8.4434,-0.031,0.0166,0.0148
30.18,1.5666,-3.4111,8.8573,-0.0246,0.0139,-0.0208
30.2,1.4212,-3.5817,8.7908,0.031,0.0363,0.0108
30.22,1.3775,-3.4322,8.6097,0.0174,0.0319,0.009
30.24,1.4336,-3.535,8.7868,0.0019,-0.0278,0.0329
30.26,1.4595,-3.2661,8.8931,-0.0068,0.0349,0.0165
30.28,1.3887,-3.4401,8.6993,0.0027,-0.0026,-0.0041
30.3,1.7532,-3.471,8.8457,0.0245,0.0136,0.0085
30.32,1.2217,-3.4899,8.4801,-0.0245,-0.053,0.0286
30.34,1.7671,-3.523,8.5787,0.0164,0.0061,0.0119
30.36,1.4772,-3.5525,8.623,0.0228,0.0071,0.0164
30.38,1.5087,-3.5788,8.5206,0.025,0.0572,0.0119
30.4,1.2427,-3.7323,8.4973,0.0059,0.0693,0.0171
30.42,1.1955,-3.574,8.3341,0.0214,0.0755,-0.0393
30.44,1.4044,-3.557,8.4602,0.0339,0.0722,-0.0158
30.46,1.2791,-3.7394,8.3078,-0.0439,-0.0738,-0.0428
30.48,1.2408,-3.5178,8.111,-0.0659,-0.1504,-0.06
30.5,1.4251,-3.5779,8.4133,-0.1826,-0.2473,-0.1016
30.52,1.2625,-3.3661,8.4624,-0.217,-0.2269,-0.0663
30.54,1.0876,-3.3777,8.454,-0.2172,-0.1521,-0.0948
30.56,1.3832,-3.4529,8.9863,-0.2009,0.0563,-0.0659
30.58,1.2854,-3.3745,9.5303,-0.1301,0.2325,-0.0032
30.6,1.3725,-3.3121,9.8838,-0.0354,0.3707,-0.0053
30.62,1.8838,-3.1906,10.317,0.1146,0.3125,0.0335
30.64,1.7547,-3.223,9.1656,0.161,0.1858,0.0148
30.66,1.7467,-3.5806,8.8737,0.2165,-0.0488,0.0825
30.68,1.8148,-3.4829,8.5616,0.2102,-0.1724,0.1064
30.7,1.5215,-3.2694,8.4589,0.1779,-0.2509,0.0715
30.72,1.5837,-3.5108,8.6486,0.1606,-0.1866,0.1214
30.74,1.6107,-3.387,8.6204,0.064,-0.1036,0.0523
30.76,1.5477,-3.5683,8.4223,-0.0448,-0.0252,0.0216
30.78,1.5959,-3.4321,8.8621,-0.0423,0.0848,0.0016
30.8,1.4832,-3.3387,8.7075,-0.0472,0.1267,0.0075
30.82,1.457,-3.5556,8.7318,-0.111,0.0596,-0.0222
30.84,1.433,-3.3896,8.7483,-0.051,0.0489,-0.0212
30.86,1.5383,-3.3371,8.9855,-0.0374,-0.004,-0.0052
30.88,1.6898,-3.2209,9.0224,-0.0357,-0.0194,0.0086
30.9,1.7053,-3.2814,9.0914,0.0466,-0.007,-0.0062
30.92,1.6339,-3.5574,8.9463,-0.0015,-0.018,-0.0039
30.94,1.4963,-3.5331,9.0159,0.025,0.0031,0.0117
30.96,1.7265,-3.3316,9.125,0.0349,0.0069,-0.0303
30.98,1.3054,-3.479,8.8108,-0.0387,-0.0287,-0.0048
31.0,1.6095,-3.5976,8.8927,0.0192,-0.0286,0.0135
31.02,1.6693,-3.6085,8.9774,0.0166,0.0161,0.0053
31.04,1.8581,-3.385,8.9962,0.0634,0.0075,-0.0244
31.06,1.8535,-3.3541,8.7089,0.0404,0.0956,-0.0303
31.08,1.7025,-3.4553,8.7144,0.075,0.0942,-0.0071
31.1,1.7027,-3.4025,9.0289,0.0312,0.0956,0.0217
31.12,1.4206,-3.2319,8.5392,-0.0083,-0.0383,0.0277
31.14,1.9579,-3.2382,9.0841,-0.0614,-0.1257,0.0773
31.16,1.1883,-3.707,7.9635,-0.1923,-0.2794,0.0269
31.18,1.052,-3.6848,8.2282,-0.2486,-0.3015,0.0917
31.2,1.1273,-3.4834,8.4639,-0.2647,-0.1979,0.0669
31.22,0.6917,-3.8129,8.504,-0.3139,-0.0457,0.0948
31.24,1.2471,-3.6451,9.4626,-0.1816,0.2048,0.0746
31.26,1.5366,-3.6834,9.9157,-0.1224,0.3246,0.0051
31.28,1.2541,-3.7016,9.8661,0.0433,0.3829,-0.0173
31.3,2.03,-3.4285,9.8463,0.1449,0.2395,-0.0271
31.32,2.07,-3.4743,9.2858,0.2612,0.0336,-0.0649
31.34,1.9329,-3.3908,8.8519,0.2259,-0.1651,-0.1188
31.36,1.2374,-3.8771,7.6382,0.1395,-0.3055,-0.0953
31.38,1.9041,-3.2675,8.7782,0.1845,-0.2153,-0.074
31.4,1.4443,-3.4733,8.3966,0.1082,-0.122,-0.0589
31.42,0.9921,-3.5566,7.8433,-0.0428,-0.0769,-0.0823
31.44,1.3939,-3.5329,8.3575,-0.0355,0.068,-0.0189
31.46,1.3262,-3.6608,8.4739,-0.1058,0.1135,-0.0171
31.48,2.2829,-3.187,9.5688,0.015,0.1421,-0.0231
31.5,1.0139,-3.757,8.1174,-0.1295,0.0366,0.0112
31.52,1.5035,-3.2755,8.9537,-0.0428,0.0042,0.017
31.54,1.8575,-3.4774,9.1628,0.0167,-0.0127,-0.0015
31.56,1.5454,-3.7479,8.8187,-0.0117,-0.039,0.0138
31.58,1.5125,-3.5148,8.6989,-0.0223,0.016,0.0183
31.6,1.3682,-3.5064,8.4986,0.0004,-0.0333,0.004
31.62,1.4427,-3.4446,8.7428,0.0188,-0.011,0.0064
31.64,1.2012,-3.4808,8.4954,-0.0219,-0.042,-0.0102
31.66,1.2071,-3.5321,8.3503,-0.0548,-0.0217,0.0085
31.68,1.5614,-3.5398,8.699,-0.0062,0.0291,0.0053
31.7,1.2525,-3.5668,8.4096,-0.0292,-0.0336,-0.0247
31.72,1.1754,-3.5911,8.5566,-0.032,-0.0018,-0.0174
31.74,1.3625,-3.5919,8.6344,-0.0047,0.0004,0.0132
31.76,1.5514,-3.4522,8.7986,-0.0344,-0.0001,-0.037
31.78,1.4871,-3.595,8.682,0.0171,-0.0139,-0.0062
31.8,1.0533,-3.6341,8.4113,-0.017,-0.0413,-0.0049
31.82,1.4139,-3.4201,8.7132,0.0206,-0.0208,-0.0027
31.84,1.3789,-3.6454,8.8991,0.0484,-0.0153,-0.0091
31.86,1.6499,-3.3523,8.7111,0.0472,0.0374,0.0237
31.88,1.5942,-3.5505,8.9364,0.0744,0.0891,0.0185
31.9,1.4899,-3.5782,8.619,0.0958,0.0976,0.0087
31.92,1.5754,-3.5445,8.5336,0.0277,0.0788,0.0026
31.94,1.447,-3.8863,8.2028,-0.028,-0.0198,-0.0558
31.96,1.3982,-3.6668,8.4457,-0.0401,-0.145,-0.0762
31.98,1.3184,-3.5605,8.2906,-0.1585,-0.2427,-0.1026
32.0,1.1885,-3.2848,8.4136,-0.2055,-0.273,-0.1034
32.02,1.3763,-3.5232,8.6006,-0.2696,-0.1913,-0.1261
32.04,1.2716,-3.2623,9.0714,-0.2263,-0.001,-0.0468
32.06,1.5556,-3.1235,9.8861,-0.1649,0.1882,-0.046
32.08,1.3971,-3.4153,9.8382,-0.0844,0.3505,-0.0138
32.1,1.2632,-3.5267,9.7872,0.0466,0.364,0.0021
32.12,1.829,-3.1071,9.8953,0.1287,0.2474,0.0378
32.14,2.0114,-3.3261,9.2161,0.2436,0.0333,0.0742
32.16,1.8302,-3.2554,8.8623,0.2624,-0.1282,0.1088
32.18,1.6311,-3.4196,8.5774,0.2518,-0.307,0.1105
32.2,1.6385,-3.545,8.4185,0.1728,-0.2226,0.0852
32.22,1.7897,-3.5141,8.689,0.1083,-0.1448,0.085
32.24,1.7364,-3.7561,8.5139,0.0313,-0.0361,0.0432
32.26,1.703,-3.4542,8.7871,-0.0251,0.085,0.0174
32.28,1.4619,-3.502,8.7404,-0.0746,0.1067,-0.0161
32.3,1.3338,-3.4467,8.7221,-0.0766,0.0943,-0.004
32.32,1.4641,-3.397,9.0248,-0.0449,0.0463,-0.007
32.34,1.6089,-3.4888,8.9971,0.0019,0.0155,-0.0107
32.36,1.6019,-3.3737,9.061,-0.0282,-0.0033,-0.0132
32.38,1.4182,-3.717,8.724,-0.0249,-0.0328,0.0108
32.4,1.4992,-3.6018,8.7591,-0.0265,-0.0307,-0.0369
32.42,1.4396,-3.4581,8.8635,-0.0208,-0.007,-0.026
32.44,1.5071,-3.4923,8.8674,-0.0019,-0.0231,0.0139
32.46,1.5418,-3.5048,8.7088,-0.0188,-0.0234,0.0143
32.48,1.5426,-3.3863,8.8948,-0.0421,0.0113,-0.0048
32.5,1.7046,-3.4503,8.9731,-0.0016,0.0003,0.0057
32.52,1.4971,-3.3687,8.9356,-0.0235,-0.0206,0.0221
32.54,1.4572,-3.3346,8.8776,0.0463,-0.0175,0.0079
32.56,1.4918,-3.5128,8.7982,0.0094,0.0029,0.0216
32.58,1.4205,-3.2598,8.9295,0.0214,0.0058,-0.0256
32.6,1.5414,-3.3808,8.8154,0.039,0.0359,-0.0082
32.62,1.6151,-3.6066,8.815,0.0561,-0.0195,-0.0125
32.64,1.7541,-3.3786,8.9922,0.0924,0.0612,-0.021
32.66,1.2354,-3.6351,8.472,0.0635,0.0891,-0.0149
32.68,1.569,-3.452,8.7368,0.0814,0.0849,0.0056
32.7,1.6217,-3.337,8.5607,0.0169,0.0256,0.0258
32.72,1.482,-3.4453,8.3984,-0.0353,-0.1118,0.055
32.74,1.3172,-3.3581,8.7165,-0.0931,-0.196,0.0514
32.76,1.3367,-3.6957,8.5894,-0.1172,-0.2478,0.1103
32.78,1.2564,-3.5143,8.6799,-0.1879,-0.1469,0.1085
32.8,1.2019,-3.3823,8.7321,-0.237,-0.0574,0.0616
32.82,1.3126,-3.735,9.3699,-0.1585,0.1494,0.0423
32.84,0.9809,-3.8148,9.4916,-0.0928,0.2684,-0.0024
32.86,1.4613,-3.6524,9.7294,0.005,0.3297,0.0054
32.88,1.8416,-3.3771,9.7435,0.1017,0.2236,-0.034
32.9,1.5439,-3.7934,8.8046,0.237,0.0257,-0.0786
32.92,1.8182,-3.9178,8.371,0.2067,-0.1367,-0.1281
32.94,1.4579,-3.5416,8.1446,0.191,-0.2347,-0.1336
32.96,1.3843,-3.5533,8.346,0.1211,-0.233,-0.0702
32.98,1.6318,-3.5693,8.4126,0.0828,-0.1427,-0.0545
33.0,1.484,-3.3457,8.3623,0.0091,-0.0293,-0.0316
33.02,1.5723,-3.3555,8.7078,-0.0232,0.059,-0.0046
33.04,1.2912,-3.5413,8.5725,-0.033,0.0817,-0.0077
33.06,1.1911,-3.5521,8.5155,-0.0886,0.0354,-0.0046
33.08,1.2553,-3.538,8.6211,-0.0725,0.0226,0.0382
33.1,1.4444,-3.5201,8.8767,0.0017,0.041,0.0433
33.12,1.4549,-3.4236,8.8385,-0.0208,-0.0301,0.0209
33.14,1.3475,-3.5371,8.6515,-0.0621,-0.0362,0.0276
33.16,1.2835,-3.5715,8.952,-0.0373,-0.0299,-0.023
33.18,1.1991,-3.713,8.7334,-0.0155,-0.0378,0.0081
33.2,1.4625,-3.4163,8.7079,0.0149,0.0087,-0.0117
33.22,1.4858,-3.5317,8.8708,0.0139,-0.0022,-0.0006
33.24,1.5435,-3.5736,8.7486,-0.0133,-0.0159,-0.0084
33.26,1.4784,-3.6897,8.814,0.0345,0.0289,0.0414
33.28,1.3967,-3.5366,9.0869,0.0367,-0.0326,0.0119
33.3,1.5424,-3.2805,9.0856,0.0329,-0.0427,0.0095
33.32,1.3689,-3.4537,8.8611,0.0329,-0.0851,0.0116
33.34,1.5221,-3.5196,8.6928,0.0719,0.0475,0.0202
33.36,1.5088,-3.3548,8.9228,0.066,0.092,0.0365
33.38,1.4761,-3.7139,8.5819,0.054,0.1238,-0.001
33.4,1.5343,-3.5731,8.8377,0.0862,0.1098,0.0107
33.42,1.5887,-3.7392,8.5025,0.0239,0.0701,-0.0202
33.44,1.5637,-3.5611,8.4218,-0.0389,-0.0424,-0.0532
33.46,1.3685,-3.7251,8.6018,-0.0951,-0.208,-0.0556
33.48,1.4688,-3.4694,8.5043,-0.191,-0.294,-0.1211
33.5,1.2806,-3.5184,8.2201,-0.3232,-0.3119,-0.1481
33.52,1.1796,-3.516,8.8486,-0.2873,-0.144,-0.0968
33.54,0.9748,-3.4346,9.1626,-0.246,0.1037,-0.0845
33.56,1.4766,-3.0682,10.3264,-0.1748,0.3153,-0.0567
33.58,1.5656,-3.1889,10.7778,-0.0037,0.47,-0.0177
33.6,1.5602,-3.5067,10.0307,0.0755,0.3984,0.0119
33.62,1.8926,-3.0957,9.9776,0.2398,0.1915,0.0634
33.64,1.7661,-3.3765,8.9245,0.2371,-0.0593,0.0876
33.66,2.0734,-3.4981,8.5044,0.2724,-0.2596,0.0685
33.68,1.7444,-3.2405,8.4383,0.2032,-0.3394,0.1026
33.7,1.4097,-3.5465,8.4626,0.1373,-0.2426,0.0736
33.72,1.7512,-3.3246,8.5538,0.0487,-0.1148,0.1132
33.74,1.3849,-3.3809,8.6113,0.0275,0.0305,0.0637
33.76,1.4903,-3.425,8.5729,-0.0529,0.104,-0.0032
33.78,1.5256,-3.669,8.7432,-0.0823,0.1361,-0.0079
33.8,1.3019,-3.4542,8.8796,-0.0481,0.1059,0.0261
33.82,1.3825,-3.4955,8.8901,-0.0738,0.0411,-0.0402
33.84,1.6479,-3.5518,9.0756,-0.0529,-0.0191,-0.0024
33.86,1.3641,-3.3968,9.1824,-0.0303,0.0319,-0.0224
33.88,1.4974,-3.4768,8.9908,0.0113,-0.0181,-0.0017
33.9,1.2549,-3.3811,8.8882,0.0126,0.0047,-0.0279
33.92,1.5562,-3.4572,9.0321,0.0273,-0.0264,0.0083
33.94,1.3144,-3.6117,8.872,0.0062,-0.0114,0.0052
33.96,1.4664,-3.46,8.9854,-0.0034,0.0035,0.0022
33.98,1.3065,-3.5627,8.6301,-0.0212,-0.0329,-0.0594
34.0,1.2784,-3.5913,8.702,0.0083,-0.0359,-0.0177
34.02,1.3786,-3.5211,8.7859,0.0569,0.0476,-0.0176
34.04,1.3829,-3.5615,8.6421,0.0521,0.0251,0.0059
34.06,1.5719,-3.4984,8.6608,0.0686,0.0657,0.0085
34.08,1.2787,-3.4691,8.4863,0.0662,0.1151,-0.0081
34.1,1.3667,-3.3431,8.5577,0.0341,0.1053,0.0196
34.12,1.2052,-3.3935,8.536,-0.0315,0.0185,0.0357
34.14,1.1588,-3.4111,8.1697,-0.0846,-0.1656,0.0735
34.16,1.3383,-3.3265,8.3959,-0.1221,-0.2673,0.1101
34.18,0.9722,-3.5845,8.1925,-0.2417,-0.3195,0.1131
34.2,1.2292,-3.573,8.3195,-0.2816,-0.2384,0.1237
34.22,1.0276,-3.4825,8.8151,-0.2811,-0.0359,0.1439
34.24,1.0757,-3.6291,9.3985,-0.1989,0.2419,0.0693
34.26,1.4564,-3.8603,10.2222,-0.0755,0.3934,0.0291
34.28,1.4236,-3.8993,9.99,0.0466,0.4101,-0.0587
34.3,1.4907,-3.7375,9.4627,0.1946,0.2126,-0.0771
34.32,1.7859,-3.7259,9.1363,0.2541,0.0201,-0.1123
34.34,1.7183,-3.5698,8.6273,0.2645,-0.1942,-0.1083
34.36,1.5494,-3.5735,8.0475,0.2019,-0.3021,-0.1122
34.38,1.5592,-3.5449,8.2223,0.1176,-0.2643,-0.1059
34.4,1.4914,-3.3863,8.2992,0.085,-0.1617,-0.0336
34.42,1.532,-3.4423,8.3669,0.0896,-0.0079,-0.0383
34.44,1.0987,-3.6196,8.2912,-0.0557,0.0927,-0.0426
34.46,1.1822,-3.5068,8.3922,-0.0742,0.098,-0.0109
34.48,1.4874,-3.112,8.7911,-0.0464,0.0985,-0.0153
34.5,1.3193,-3.5974,8.6738,-0.0267,0.0667,0.0113
34.52,1.3019,-3.4696,8.9206,-0.0206,0.0163,0.0172
34.54,1.114,-3.3739,9.0336,-0.0436,-0.0199,0.0407
34.56,1.5581,-3.5208,9.0639,0.018,0.0348,0.0164
34.58,1.3062,-3.5968,8.7782,-0.0098,-0.0418,0.0294
34.6,1.4123,-3.398,8.9054,-0.0088,0.0051,-0.0163
34.62,1.3346,-3.5797,8.8592,0.0095,0.0214,0.0117
34.64,1.38,-3.5782,8.6455,0.0155,-0.0262,-0.0299
34.66,1.4746,-3.4737,9.2351,0.0173,-0.0188,0.02
34.68,1.57,-3.4549,9.0573,0.0197,-0.036,0.0339
34.7,1.6933,-3.5125,9.0985,0.0431,-0.0209,0.0174
34.72,1.8089,-3.5812,8.9662,0.0742,0.045,0.014
34.74,0.9619,-3.6805,8.3428,0.01,0.0131,0.0039
34.76,2.1471,-2.9679,9.9754,0.1629,0.1526,0.0324
34.78,1.8935,-3.323,9.0895,0.1056,0.1325,-0.0109
34.8,1.552,-3.5639,8.5985,-0.014,0.0528,-0.0261
34.82,1.615,-3.5784,8.765,-0.005,-0.0355,-0.0468
34.84,1.9659,-3.4251,8.8653,-0.049,-0.1548,-0.0663
34.86,0.5124,-4.003,7.5444,-0.2489,-0.3213,-0.1271
34.88,1.6288,-3.3694,8.9629,-0.1906,-0.259,-0.1176
34.9,1.3274,-3.4464,9.1683,-0.2195,-0.14,-0.1039
34.92,0.3638,-3.5807,8.3563,-0.3066,-0.0266,-0.0772
34.94,1.5816,-3.2822,10.1041,-0.1048,0.2677,-0.0808
34.96,1.5345,-3.131,10.4325,-0.0382,0.4018,-0.0308
34.98,1.8038,-3.314,10.5179,0.1297,0.34,0.0309
35.0,2.5882,-3.1281,10.2674,0.2285,0.2122,0.0531
35.02,2.4872,-3.3753,9.5959,0.2874,-0.0022,0.0901
35.04,2.0645,-3.3293,8.7616,0.2458,-0.2164,0.1011
35.06,1.9177,-3.4225,8.818,0.2344,-0.29,0.1197
35.08,1.0649,-3.9906,7.5793,0.1075,-0.2878,0.0654
35.1,2.1298,-3.3054,9.348,0.1309,-0.0908,0.0514
35.12,2.1414,-3.0843,9.9065,0.0792,0.0524,0.0283
35.14,1.2643,-3.5898,8.2813,-0.0371,0.0507,0.0166
35.16,0.2905,-4.006,7.5732,-0.1473,0.0427,-0.012
35.18,1.3463,-3.7377,8.592,-0.095,0.0632,-0.0025
35.2,1.9028,-3.3307,9.4064,-0.0151,0.0648,-0.0502
35.22,1.2459,-3.7786,8.7544,-0.0743,-0.0312,0.0036
35.24,1.8211,-3.4406,9.372,-0.0192,-0.0152,-0.0221
35.26,0.743,-3.941,8.1247,-0.0741,-0.0971,-0.0454
35.28,1.3577,-3.3012,8.971,-0.0023,-0.023,0.0003
35.3,0.935,-3.6806,8.2733,-0.0638,-0.0818,-0.0149
35.32,2.2439,-3.1439,9.8344,0.0767,0.0126,-0.011
35.34,0.7193,-3.886,7.9215,-0.0562,-0.0732,-0.0034
35.36,1.1198,-3.61,8.4988,-0.0151,-0.0362,-0.0118
35.38,1.7395,-3.4249,8.9875,-0.0003,-0.0037,-0.0044
35.4,0.8106,-3.7909,8.0209,-0.0669,-0.0426,-0.0119
35.42,1.2679,-3.6786,8.7905,0.0013,-0.0141,0.025
35.44,1.3414,-3.3885,8.7593,-0.0124,-0.0166,-0.025
35.46,1.5752,-3.7656,8.8606,0.0224,-0.0507,0.0151
35.48,1.5746,-3.5163,8.9171,0.0429,0.0079,-0.0196
35.5,2.1394,-3.1955,9.7377,0.1644,0.1025,-0.0097
35.52,1.0968,-3.6165,8.2587,0.0362,0.0591,-0.0272
35.54,1.324,-3.5515,8.6584,0.0906,0.1005,0.0092
35.56,1.676,-3.4496,8.5062,0.0685,0.0731,0.0167
35.58,1.3858,-3.574,8.5048,0.0493,-0.02,0.063
35.6,1.3714,-3.319,8.1661,-0.075,-0.1644,0.0908
35.62,1.176,-3.4469,8.3661,-0.1894,-0.3051,0.0915
35.64,0.8921,-3.9489,8.1965,-0.2612,-0.3561,0.0972
35.66,1.175,-3.5586,8.4467,-0.2579,-0.1924,0.1219
35.68,0.9392,-3.8452,9.0032,-0.2356,0.0447,0.1177
35.7,1.2475,-3.663,9.8469,-0.1457,0.2615,0.038
35.72,0.895,-3.935,9.7434,-0.0864,0.3811,0.0069
35.74,1.573,-3.9109,10.0127,0.0502,0.3712,-0.0298
35.76,1.9056,-3.8479,9.7776,0.2081,0.2526,-0.0829
35.78,1.4764,-3.8367,8.737,0.2739,-0.0329,-0.1025
35.8,1.7552,-3.7243,8.2603,0.2639,-0.2103,-0.13
35.82,1.5159,-3.4283,8.3532,0.2338,-0.3003,-0.0867
35.84,1.4068,-3.5643,8.3249,0.1963,-0.2778,-0.0779
35.86,1.2725,-3.4863,8.4651,0.0892,-0.1654,-0.0689
35.88,1.435,-3.6592,8.4423,0.011,-0.0065,-0.0354
35.9,1.2893,-3.5626,8.5621,-0.0458,0.0989,-0.0368
35.92,1.1436,-3.3752,8.6067,-0.0825,0.0932,0.0484
35.94,1.238,-3.3755,8.475,-0.0614,0.0527,0.0016
35.96,1.3824,-3.7259,8.8379,-0.0019,0.0426,0.0208
35.98,1.2925,-3.6073,8.8063,-0.0134,-0.0208,0.0062
36.0,1.3193,-3.5354,8.7571,-0.0783,0.0023,0.0031
36.02,1.5931,-3.549,8.9362,0.0248,-0.0045,0.0221
36.04,1.6592,-3.362,9.0764,-0.0052,-0.0186,-0.0091
36.06,1.1211,-3.6726,8.5251,-0.0253,-0.0498,-0.0285
36.08,1.3372,-3.825,8.6864,0.0143,-0.0393,0.0032
36.1,1.4953,-3.5347,8.849,0.0138,0.0178,0.0066
36.12,1.3601,-3.4986,8.7881,0.0029,-0.0326,-0.01
36.14,1.4901,-3.5739,9.1087,0.0138,-0.0458,-0.0385
36.16,1.5213,-3.4255,9.0327,0.0429,0.0067,-0.0129
36.18,1.4459,-3.4891,8.9573,0.0507,-0.0029,0.005
36.2,1.5675,-3.6583,8.4945,0.0134,0.0382,-0.0055
36.22,1.585,-3.557,8.832,0.0439,0.0755,-0.0188
36.24,1.5184,-3.4867,8.8193,0.0666,0.1169,0.0095
36.26,1.7043,-3.2731,8.8591,0.0458,0.1013,0.0145
36.28,1.3963,-3.5158,8.5393,-0.0214,-0.0422,-0.0432
36.3,1.4141,-3.5186,8.7807,-0.0324,-0.1479,-0.0548
36.32,1.3661,-3.4636,8.425,-0.1454,-0.2213,-0.0752
36.34,1.4018,-3.2584,8.6652,-0.2293,-0.274,-0.1003
36.36,1.2534,-3.3508,8.7107,-0.2082,-0.1512,-0.1252
36.38,1.1461,-3.3973,9.2488,-0.2248,0.0208,-0.0521
36.4,1.2615,-3.279,10.1655,-0.1518,0.2519,-0.0864
36.42,1.2366,-3.4438,10.0072,-0.0418,0.331,-0.024
36.44,1.6821,-3.2566,10.2362,0.0688,0.2867,0.024
36.46,1.868,-3.4042,9.5199,0.1841,0.1485,0.0599
36.48,1.9156,-3.2831,8.835,0.2173,-0.0442,0.0688
36.5,2.0408,-3.511,8.6771,0.2416,-0.1908,0.0782
36.52,1.7067,-3.5245,8.7308,0.2162,-0.2718,0.0821
36.54,1.6177,-3.6695,8.3622,0.1532,-0.2122,0.0754
36.56,1.3136,-3.7957,8.5534,0.085,-0.109,0.0298
36.58,1.4592,-3.4108,8.5033,0.0285,-0.0235,0.0697
36.6,1.4923,-3.6052,8.8672,-0.0335,0.0936,0.0395
36.62,1.1874,-3.5434,8.3546,-0.0906,0.0607,-0.0404
36.64,1.3178,-3.7917,8.4335,-0.0631,0.014,-0.0311
36.66,1.5115,-3.4647,8.7964,-0.0599,0.0452,0.0258
36.68,1.3446,-3.7218,8.5391,-0.0271,-0.0285,-0.0199
36.7,1.6588,-3.4042,8.8987,-0.0127,0.0184,-0.01
36.72,1.5923,-3.7907,8.8688,0.0261,0.0054,-0.0011
36.74,1.2962,-3.5267,9.1297,0.0106,-0.028,0.0042
36.76,1.4794,-3.4112,8.8744,-0.0021,-0.0155,0.0139
36.78,1.5264,-3.5394,8.7972,0.0295,-0.0122,-0.016
36.8,1.3895,-3.6975,8.5938,-0.0097,-0.029,0.0068
36.82,1.3882,-3.5763,8.7452,-0.0003,-0.016,-0.0067
36.84,1.1249,-3.7793,8.5861,-0.0001,-0.0413,0.0051
36.86,1.5954,-3.6253,9.1432,0.0598,0.0127,0.003
36.88,1.3723,-3.4828,8.572,0.0479,0.0182,-0.0033
36.9,1.2948,-3.2892,8.6048,0.0377,0.0265,0.0033
36.92,1.4787,-3.4565,8.5163,0.0618,0.1015,0.0078
36.94,1.1873,-3.6688,8.5746,0.0364,0.0521,0.0035
36.96,1.3895,-3.4725,8.7036,0.0525,0.066,0.052
36.98,1.4087,-3.5488,8.4489,-0.0594,-0.1087,0.0761
37.0,1.4708,-3.5486,8.2429,-0.0873,-0.1718,0.0668
37.02,1.1198,-3.8094,8.1366,-0.1975,-0.3058,0.0771
37.04,1.1507,-3.3221,8.3884,-0.2059,-0.2115,0.0925
37.06,0.8017,-3.5376,8.5525,-0.2349,-0.0854,0.0802
37.08,1.1663,-3.7001,9.6757,-0.1884,0.1348,0.0454
37.1,1.1822,-3.7364,9.912,-0.0851,0.2802,0.0427
37.12,1.4839,-3.4865,10.2431,0.0223,0.3484,-0.0069
37.14,1.9404,-3.7644,9.9884,0.153,0.2629,-0.0203
37.16,1.3436,-3.7372,8.7888,0.1602,0.0427,-0.0823
37.18,1.8541,-3.7466,8.6975,0.196,-0.1013,-0.0858
37.2,1.6411,-3.6202,8.2476,0.1804,-0.2497,-0.1147
37.22,1.47,-3.5333,8.5448,0.1677,-0.2258,-0.0885
37.24,1.2884,-3.4311,8.4255,0.0815,-0.1828,-0.0677
37.26,1.2373,-3.4837,8.5058,0.0367,-0.0649,-0.0422
37.28,1.2916,-3.4127,8.568,-0.006,0.0542,-0.0097
37.3,1.1419,-3.4878,8.386,-0.0197,0.0391,-0.022
37.32,1.1097,-3.5402,8.4174,-0.0672,0.0748,-0.0114
37.34,1.4031,-3.5624,8.7184,-0.0236,0.0483,0.0097
37.36,1.7513,-3.7501,8.8861,-0.0314,-0.0013,-0.0033
37.38,1.4971,-3.6558,8.8196,-0.0003,-0.0288,0.0037
37.4,1.3317,-3.5677,8.9202,0.0089,-0.0607,0.0078
37.42,1.2758,-3.4752,8.8177,0.0082,-0.025,0.0096
37.44,1.3582,-3.397,8.9055,-0.0118,-0.0587,0.0186
37.46,1.3048,-3.6075,8.81,-0.0225,-0.0465,-0.0325
37.48,1.4908,-3.3402,8.8889,0.0124,0.0046,-0.027
37.5,1.5085,-3.5039,8.7736,0.0089,0.0167,-0.0032
37.52,1.0358,-3.6282,8.8993,-0.0065,-0.0582,-0.002
37.54,1.6481,-3.3859,9.2702,0.0124,-0.0039,-0.0001
37.56,1.3436,-3.4994,9.0911,0.0222,0.0252,0.0128
37.58,1.2066,-3.7489,8.9062,-0.0225,-0.01,0.0008
37.6,1.4214,-3.485,9.2213,0.0207,-0.0589,0.0107
37.62,1.3822,-3.227,9.1617,0.0515,-0.0162,0.0317
37.64,1.7008,-3.357,8.9659,0.077,-0.0029,0.0274
37.66,1.6738,-3.4867,8.9171,0.0452,0.0285,-0.008
37.68,1.8153,-3.6278,8.7777,0.1208,0.1305,0.0288
37.7,1.7292,-3.5162,8.7905,0.061,0.1185,0.021
37.72,1.6538,-3.6785,8.7129,0.091,0.0888,-0.0217
37.74,1.6343,-3.6283,8.949,0.0204,0.0085,-0.0403
37.76,1.3191,-3.6614,8.3945,-0.0966,-0.1731,-0.0743
37.78,1.3047,-3.4806,8.5245,-0.1236,-0.2751,-0.0735
37.8,1.4654,-3.3533,8.6394,-0.2163,-0.2864,-0.0889
37.82,0.9121,-3.2512,8.5146,-0.2901,-0.2144,-0.1015
37.84,0.5647,-3.5731,9.4341,-0.2599,0.0319,-0.0756
37.86,0.8251,-3.1412,9.8495,-0.1694,0.2114,-0.0152
37.88,1.1103,-3.518,10.8103,-0.0767,0.4124,0.0308
37.9,1.6874,-3.2847,10.6691,0.0886,0.3775,0.0342
37.92,1.8021,-3.3116,9.3362,0.1467,0.2096,0.0552
37.94,2.3036,-3.296,9.3234,0.3106,-0.0037,0.0795
37.96,1.6741,-3.5758,8.5646,0.3071,-0.183,0.1151
37.98,1.4636,-3.4935,8.2892,0.2571,-0.3403,0.0864
38.0,1.7659,-3.6307,8.2567,0.1436,-0.2967,0.1187
38.02,1.5084,-3.4955,8.4289,0.1083,-0.1774,0.0898
38.04,1.4628,-3.6502,8.432,0.0014,-0.0167,0.0291
38.06,1.3774,-3.6809,8.5143,-0.0612,0.0845,0.0077
38.08,1.4532,-3.6908,8.5874,-0.0243,0.1055,-0.0047
38.1,1.4551,-3.6921,8.4811,-0.0657,0.0792,-0.0018
38.12,1.2104,-3.747,8.7842,-0.0439,0.0559,-0.0007
38.14,1.2896,-3.6362,8.8798,0.0103,-0.0017,-0.0365
38.16,1.5131,-3.4924,9.0145,-0.0265,-0.0,0.0202
38.18,1.3799,-3.6113,8.9844,0.0115,-0.0243,0.0064
38.2,1.5282,-3.782,8.8877,0.0382,-0.0108,0.002
38.22,1.1551,-3.6079,8.5183,-0.0035,-0.0137,-0.018
38.24,1.1627,-3.6008,8.7024,-0.0035,0.0012,-0.042
38.26,1.3461,-3.6584,8.8023,-0.0051,-0.0182,-0.0165
38.28,1.3966,-3.662,8.9806,0.0116,0.0038,0.0046
38.3,1.3092,-3.5814,8.7901,0.0209,-0.0289,-0.0091
38.32,1.3095,-3.5596,8.6643,0.0012,-0.0411,0.0358
38.34,1.1984,-3.4907,8.848,-0.0132,-0.0346,0.0105
38.36,1.2246,-3.731,8.71,-0.0352,-0.0515,0.0115
38.38,1.4039,-3.4665,8.8731,0.0517,0.0133,0.0283
38.4,1.2743,-3.4627,8.5862,0.0677,0.0069,0.0021
38.42,1.2271,-3.4464,8.7711,0.0618,0.0891,0.0049
38.44,1.2031,-3.4491,8.3418,0.0487,0.1038,-0.0258
38.46,1.6009,-3.5362,8.8272,0.0762,0.1332,-0.0064
38.48,1.1452,-3.728,8.0879,-0.0177,-0.0076,0.0099
38.5,1.5758,-3.5585,8.2637,-0.0152,-0.109,0.0365
38.52,0.9356,-3.5401,8.3085,-0.1635,-0.2308,0.0536
38.54,1.2474,-3.4753,8.2711,-0.1705,-0.3052,0.1021
38.56,0.9752,-3.782,8.1876,-0.2207,-0.2338,0.0968
38.58,0.7607,-3.6062,8.8699,-0.2269,-0.0906,0.0965
38.6,1.1351,-3.8677,9.7468,-0.1652,0.1831,0.0465
38.62,0.6325,-3.8394,9.9894,-0.0905,0.3174,0.0196
38.64,1.358,-3.7371,10.9488,0.0468,0.3894,-0.0078
38.66,1.3416,-3.7641,9.6996,0.1351,0.2736,-0.0731
38.68,1.7907,-3.7735,9.3126,0.2596,0.0899,-0.1206
38.7,1.8561,-3.7986,8.4484,0.2461,-0.1347,-0.1129
38.72,1.7509,-3.7353,8.4056,0.257,-0.2781,-0.0831
38.74,1.388,-3.7092,8.3283,0.1326,-0.2938,-0.1235
38.76,1.4576,-3.6038,8.5881,0.1441,-0.1989,-0.0822
38.78,1.2646,-3.5523,8.5017,0.0029,-0.0526,-0.0694
38.8,1.5374,-3.5491,8.5878,-0.0365,0.0868,-0.015
38.82,1.3783,-3.26,8.6519,-0.0473,0.0789,-0.0005
38.84,1.4242,-3.5159,8.7645,-0.06,0.0862,0.0276
38.86,1.4356,-3.3241,8.7485,-0.0546,0.0538,0.0068
38.88,1.576,-3.5894,9.2443,-0.0583,0.0246,-0.001
38.9,1.5317,-3.6736,8.9846,0.0038,-0.0378,-0.0027
38.92,1.7432,-3.5824,9.3816,0.0448,-0.0142,0.0044
38.94,1.4844,-3.7065,9.0703,0.017,-0.025,0.0342
38.96,1.7791,-3.509,8.8895,-0.0382,-0.0527,0.0146
38.98,1.5427,-3.279,8.9098,0.0187,0.0005,0.0005
39.0,1.4914,-3.3173,8.89,-0.004,-0.0627,-0.0061
39.02,1.7561,-3.4199,9.2371,0.0187,-0.0098,0.0402
39.04,1.4697,-3.5132,9.2253,0.0368,-0.0278,0.0003
39.06,1.3968,-3.4879,8.8373,0.0383,-0.0114,0.0174
39.08,1.5759,-3.5332,8.8629,0.0509,-0.0093,0.0484
39.1,1.4725,-3.5182,8.5136,0.0561,0.0584,0.044
39.12,1.5762,-3.8724,8.783,0.0852,0.1291,0.0091
39.14,1.3557,-3.6568,8.5398,0.0546,0.0852,-0.028
39.16,1.3475,-3.8235,8.4128,0.0272,0.0596,-0.0604
39.18,1.5706,-3.8574,8.1796,-0.0144,-0.0531,-0.0664
39.2,1.1273,-3.5475,8.368,-0.1373,-0.2577,-0.0585
39.22,1.1595,-3.372,8.2809,-0.2466,-0.3212,-0.1013
39.24,0.8588,-3.5058,8.4065,-0.255,-0.3295,-0.1156
39.26,0.9313,-3.2703,8.694,-0.3226,-0.1277,-0.1072
39.28,0.917,-3.3406,9.4146,-0.2612,0.1278,-0.0567
39.3,1.0061,-3.5606,10.3602,-0.1577,0.3579,-0.0508
39.32,1.4611,-3.1517,10.8847,-0.028,0.4301,-0.0286
39.34,1.6225,-3.8196,10.1927,0.1006,0.361,0.0312
39.36,1.6374,-3.3571,9.6535,0.2664,0.1626,0.0685
39.38,1.989,-3.3565,8.6645,0.2998,-0.1432,0.0773
39.4,1.8273,-3.7446,8.2176,0.3281,-0.3093,0.1175
39.42,1.4136,-3.8369,7.8812,0.235,-0.3127,0.089
39.44,1.5104,-3.4954,8.2397,0.1417,-0.2816,0.0935
39.46,1.3408,-3.7014,8.0321,0.0564,-0.1166,0.0502
39.48,1.3607,-3.6115,8.5397,-0.0068,0.0423,0.0611
39.5,1.4326,-3.6912,8.395,-0.0677,0.1064,0.0256
39.52,1.281,-3.8157,8.6025,-0.0797,0.1213,-0.0181
39.54,1.3686,-3.8452,8.638,-0.0608,0.0966,-0.0282
39.56,0.896,-3.6475,8.4377,-0.0262,0.0183,-0.0143
39.58,1.3072,-3.6741,8.6356,-0.0388,-0.0236,0.0266
39.6,1.2438,-3.6399,8.8501,-0.01,-0.077,0.0041
39.62,1.2641,-3.6066,8.8265,-0.0205,-0.0571,0.0072
39.64,0.9512,-3.8032,8.5534,0.0008,-0.0541,-0.0534
39.66,1.2355,-3.5556,8.7952,0.0288,-0.0221,0.0311
39.68,1.7865,-3.4928,8.999,0.0362,-0.0044,0.013
39.7,1.0831,-3.6725,8.5199,-0.0154,-0.0315,-0.0298
39.72,1.4041,-3.5416,8.8237,0.0029,-0.0237,0.0282
39.74,1.6838,-3.7033,8.8055,0.0518,0.0115,0.0572
39.76,1.3404,-3.4164,8.8214,-0.0193,-0.0122,-0.0106
39.78,1.3607,-3.677,8.6196,0.0022,-0.0191,-0.0063
39.8,1.5743,-3.7065,9.0875,0.0591,0.0161,0.0266
39.82,1.2676,-3.8244,8.9297,-0.0155,-0.011,-0.0182
39.84,1.0755,-3.49,8.6382,0.0052,-0.0637,-0.0155
39.86,1.472,-3.7573,8.6837,0.044,-0.024,0.0108
39.88,2.1359,-3.2098,9.7928,0.1485,0.0462,-0.0296
39.9,1.6832,-3.4898,8.8264,0.0576,0.0584,-0.0339
39.92,1.3157,-3.534,8.3366,0.0532,0.097,0.0115
39.94,0.5646,-3.8115,7.5104,0.0073,0.0747,0.0124
39.96,1.7823,-3.2823,8.8837,0.0659,0.1008,0.0233
39.98,1.8482,-3.3335,8.845,0.0133,-0.035,0.0258
40.0,1.5285,-3.6149,8.562,-0.0683,-0.1521,0.0387
40.02,0.7194,-3.5892,7.9105,-0.188,-0.3233,0.0746
40.04,0.7485,-3.6588,8.0675,-0.238,-0.325,0.1111
40.06,0.7253,-3.9418,8.4726,-0.2429,-0.1576,0.1005
40.08,1.0539,-3.8046,9.1845,-0.2468,0.0212,0.0952
40.1,1.257,-3.9981,10.4833,-0.1176,0.2761,0.054
40.12,1.8163,-3.6108,11.1449,0.0173,0.396,-0.0092
40.14,1.3456,-3.9484,10.6397,0.1109,0.3457,0.0071
40.16,1.7393,-3.418,9.8701,0.1996,0.228,-0.0582
40.18,2.2853,-3.6573,9.4214,0.3015,-0.0212,-0.1091
40.2,1.4773,-3.7151,8.2298,0.2958,-0.2346,-0.104
40.22,2.2679,-3.3526,8.9948,0.3038,-0.2508,-0.1017
40.24,0.9611,-3.6755,7.8262,0.0967,-0.2899,-0.1074
40.26,0.4691,-4.0138,7.2063,-0.0485,-0.2162,-0.0691
40.28,2.3936,-2.9882,9.5589,0.0755,0.028,-0.0083
40.3,1.9164,-3.3543,9.3435,-0.0079,0.1172,-0.0329
40.32,2.8641,-2.9239,10.3698,0.0606,0.1962,-0.0005
40.34,2.2507,-2.9943,9.8376,0.0128,0.1466,0.0063
40.36,1.5175,-3.492,9.0764,-0.0346,0.0616,0.0096
40.38,1.7024,-3.4898,9.2009,-0.0028,0.0134,0.0082
40.4,0.4577,-4.1637,7.6739,-0.0925,-0.0665,0.0205
40.42,1.4726,-3.4539,9.1502,0.0014,-0.0429,-0.0187
40.44,0.8078,-3.9546,8.2093,-0.0362,-0.038,-0.0071
40.46,1.0832,-3.7951,8.4218,-0.0547,-0.0433,-0.037
40.48,1.2257,-3.7506,8.701,-0.0182,-0.0012,0.0297
40.5,1.3553,-3.446,9.1491,0.0711,-0.0065,-0.0085
40.52,1.3234,-3.666,8.9945,0.0017,-0.0184,0.0207
40.54,1.6119,-3.5806,9.289,0.0346,-0.0204,0.0008
40.56,1.5396,-3.7183,8.996,0.0604,-0.0083,0.0097
40.58,1.4959,-3.8152,8.965,0.0535,-0.0276,0.0138
40.6,1.5997,-3.5907,8.6269,0.0937,0.0408,0.0002
40.62,1.6972,-4.0566,8.7871,0.0876,0.0414,0.0266
40.64,1.325,-3.7994,8.3249,0.065,0.0856,-0.008
40.66,1.0941,-3.6968,8.4884,0.0436,0.0916,-0.0086
40.68,1.357,-3.6045,8.6321,0.0441,0.0382,0.0003
40.7,1.2829,-3.5763,8.3031,-0.0353,-0.0977,-0.0422
40.72,1.2472,-3.6563,8.129,-0.1504,-0.2657,-0.0456
40.74,1.035,-3.5902,8.2007,-0.2113,-0.3057,-0.1055
40.76,1.0576,-3.8901,8.1231,-0.2793,-0.3283,-0.1093
40.78,1.0066,-3.4001,9.0617,-0.2625,-0.035,-0.0549
40.8,0.6023,-3.4775,9.1845,-0.234,0.1495,-0.0679
40.82,1.0898,-3.5373,10.5458,-0.1079,0.3639,-0.0211
40.84,1.28,-3.4868,10.5275,0.0352,0.4136,-0.0199
40.86,1.6239,-3.3698,10.2018,0.1839,0.2795,0.0929
40.88,1.8678,-3.3868,9.3882,0.2776,0.1045,0.09
40.9,1.9177,-3.4021,8.5539,0.3145,-0.1364,0.1099
40.92,1.6579,-3.4833,7.7158,0.2532,-0.3143,0.0834
40.94,1.4755,-3.8696,7.9132,0.221,-0.2689,0.124
40.96,1.2752,-3.7105,8.0409,0.1303,-0.2196,0.107
40.98,1.4917,-3.7715,8.1538,0.0286,-0.0955,0.0668
41.0,1.429,-3.4025,8.3781,-0.053,0.0527,0.026
41.02,1.2707,-3.3355,8.4703,-0.0707,0.1045,-0.0012
41.04,1.46,-3.7119,8.6264,-0.0664,0.0789,0.001
41.06,1.0534,-3.4976,8.5449,-0.0596,0.0364,0.0303
41.08,1.0242,-3.6952,8.4974,-0.052,-0.0165,-0.0371
41.1,0.8724,-3.7686,8.6013,-0.0323,-0.0522,-0.0415
41.12,1.5343,-3.6268,8.9647,0.013,-0.0061,-0.0253
41.14,1.3172,-3.9003,8.7386,0.0264,0.0053,0.0022
41.16,1.4985,-3.8305,8.699,0.0041,-0.009,-0.013
41.18,1.5064,-3.408,8.7525,-0.0096,-0.011,-0.0297
41.2,1.3954,-3.8256,8.6536,0.0253,-0.0169,-0.0009
41.22,1.5635,-3.4523,8.9225,-0.0022,-0.0137,0.0059
41.24,1.3598,-3.6326,8.8276,-0.0244,0.0027,-0.0078
41.26,1.1272,-3.7043,8.7847,0.0146,-0.017,-0.0194
41.28,1.6912,-3.6733,9.0844,0.0388,-0.0358,-0.0038
41.3,1.3758,-3.5892,8.7653,0.031,-0.0151,0.0042
41.32,1.4293,-3.4904,8.7691,0.1156,0.107,-0.0062
41.34,1.4198,-3.3438,8.4875,0.0924,0.0851,-0.0069
41.36,1.4701,-3.549,8.4396,0.0896,0.1416,0.0046
41.38,1.4829,-3.5618,8.2534,0.045,0.0758,-0.0036
41.4,1.6291,-3.4723,8.5161,0.0167,-0.0018,0.0377
41.42,1.3782,-3.4717,8.4121,-0.1031,-0.1996,0.0728
41.44,1.1703,-3.6742,7.8725,-0.2154,-0.3607,0.0772
41.46,1.0804,-3.5774,8.1706,-0.2413,-0.3242,0.0939
41.48,0.8514,-3.6223,8.488,-0.282,-0.2362,0.0982
41.5,0.8473,-3.7809,9.2233,-0.2665,0.0109,0.094
41.52,0.9744,-3.6887,10.0937,-0.2206,0.2418,0.0351
41.54,0.8931,-4.0602,10.5522,-0.0618,0.405,0.0156
41.56,1.5063,-3.6475,10.5385,0.0863,0.423,-0.0253
41.58,2.0633,-3.8606,10.4484,0.2227,0.2491,-0.0785
41.6,1.9307,-3.6743,9.1564,0.3111,-0.006,-0.0862
41.62,1.7679,-3.4438,8.2091,0.2913,-0.2696,-0.1438
41.64,1.9377,-3.7656,8.6753,0.2834,-0.3448,-0.1393
41.66,1.725,-3.3463,8.5071,0.1925,-0.3195,-0.0976
41.68,1.8448,-3.0904,8.679,0.1064,-0.1515,-0.0345
41.7,1.332,-3.5397,8.2872,-0.0157,-0.0115,-0.0511
41.72,1.6619,-3.5375,8.6426,-0.0414,0.0952,-0.0111
41.74,1.6643,-3.4109,8.8321,-0.035,0.1664,0.0276
41.76,1.6578,-3.713,8.5211,-0.0387,0.0746,-0.01
41.78,1.549,-3.5439,9.0296,-0.0672,0.0523,0.0147
41.8,1.539,-3.5253,8.9773,-0.0203,0.0197,0.0392
41.82,1.7327,-3.739,9.0063,-0.0075,-0.0009,0.0161
41.84,1.2656,-3.5878,8.9521,-0.0297,-0.056,0.0173
41.86,1.1198,-3.5429,9.0023,0.0268,-0.0385,-0.0135
41.88,1.6974,-3.5547,9.1389,0.0262,-0.0075,0.0208
41.9,1.4524,-3.398,8.7098,0.0073,-0.0309,-0.0067
41.92,1.4804,-3.5627,8.9336,0.0475,0.0218,-0.0103
41.94,1.3789,-3.5602,8.7805,0.0463,-0.0171,0.0185
41.96,1.3013,-3.6758,8.7986,0.0373,0.0204,-0.0039
41.98,1.2627,-3.5245,8.696,0.0012,-0.0046,-0.0098
42.0,1.3093,-3.3985,8.7894,0.0321,-0.0055,0.0084
42.02,1.4076,-3.654,8.9627,0.0158,-0.0068,0.0285
42.04,1.2769,-3.5235,8.6881,-0.029,-0.0213,-0.0131
42.06,1.2146,-3.5693,8.8619,0.0314,-0.0225,-0.0081
42.08,0.9741,-3.6705,8.6901,-0.0038,-0.0671,0.0031
42.1,1.4399,-3.4561,8.7195,-0.0096,-0.0606,-0.0298
42.12,1.5385,-3.7583,8.7436,0.0323,-0.0307,0.0067
42.14,1.2727,-3.4967,9.0155,0.0486,0.026,0.0064
42.16,1.5536,-3.612,8.5486,0.03,0.0706,0.0025
42.18,1.1571,-3.5509,8.2027,0.0429,0.0702,0.0256
42.2,1.3538,-3.7198,8.1487,0.0769,0.1277,-0.0164
42.22,1.4591,-3.6905,8.303,0.064,0.0719,-0.0358
42.24,1.4036,-3.6201,8.3273,0.0267,-0.0304,0.0029
42.26,1.3486,-3.5734,8.0937,-0.1008,-0.1932,-0.0837
42.28,1.3752,-3.7155,8.3267,-0.1748,-0.3225,-0.1163
42.3,1.5576,-3.4324,8.2268,-0.2367,-0.329,-0.1253
42.32,0.8039,-3.7243,8.5522,-0.3012,-0.2251,-0.1341
42.34,0.3878,-3.3167,8.9666,-0.2484,0.0419,-0.0864
42.36,1.0249,-3.3903,10.1043,-0.1682,0.3243,-0.017
42.38,1.1271,-3.2496,10.7809,-0.0629,0.4202,-0.0303
42.4,1.7982,-3.4033,10.7548,0.137,0.4232,0.0187
42.42,1.6234,-3.3842,9.695,0.2437,0.2358,0.113
42.44,1.7336,-3.2958,8.6975,0.3143,-0.0804,0.1204
42.46,1.6702,-3.6434,8.2072,0.3223,-0.2838,0.1069
42.48,1.8017,-3.3219,7.9995,0.2479,-0.3416,0.0901
42.5,1.4207,-3.5367,8.1382,0.2081,-0.2968,0.1051
42.52,1.4835,-3.7956,8.3443,0.1522,-0.1664,0.1
42.54,1.4772,-3.8754,8.2461,0.004,-0.0138,0.0348
42.56,1.2526,-3.9404,8.3787,-0.0833,0.1098,0.0102
42.58,1.496,-3.6384,8.7616,-0.0632,0.1362,0.0171
42.6,1.1535,-3.7373,8.1673,-0.1065,0.0983,-0.0282
42.62,1.1948,-3.7566,8.646,-0.0707,0.0558,-0.0457
42.64,1.23,-3.6272,8.6427,-0.0331,-0.0172,-0.0078
42.66,2.0296,-3.5926,9.2099,0.0783,0.0176,-0.0364
42.68,1.3236,-3.6689,8.783,0.0155,-0.0189,0.0056
42.7,1.4651,-3.5502,8.828,0.0113,0.0264,-0.0179
42.72,1.3992,-3.5129,8.5782,-0.0105,-0.0252,0.0073
42.74,1.5863,-3.4008,8.7936,-0.0044,-0.0184,-0.0078
42.76,1.1014,-3.4565,8.7354,-0.0109,-0.0017,-0.004
42.78,1.3212,-3.5127,8.6458,-0.0008,-0.0039,0.0012
42.8,1.4163,-3.3195,9.0644,-0.0073,-0.0266,0.0026
42.82,1.353,-3.8219,8.8469,0.0371,-0.049,0.0024
42.84,1.6365,-3.4987,8.7228,0.0152,-0.0701,-0.0365
42.86,1.6079,-3.5034,8.9616,0.0711,0.0136,-0.0091
42.88,1.7517,-3.474,8.9007,0.0755,-0.0035,-0.0201
42.9,1.5858,-3.5734,8.7849,0.058,0.1042,0.0016
42.92,1.7596,-3.5374,8.6484,0.058,0.1231,-0.0044
42.94,1.727,-3.509,8.6884,0.0606,0.0986,-0.0035
42.96,1.6401,-3.3225,8.2996,-0.0009,0.0061,0.0281
42.98,1.8508,-3.4516,8.5413,-0.0497,-0.1095,0.0468
43.0,1.4828,-3.4891,8.3498,-0.0902,-0.2283,0.0859
43.02,1.2883,-3.3693,8.492,-0.189,-0.2509,0.128
43.04,0.9043,-3.5035,8.5665,-0.2225,-0.2363,0.091
43.06,0.7847,-3.7526,8.8998,-0.2583,-0.0575,0.1223
43.08,1.2417,-3.6807,9.8402,-0.2115,0.1922,0.0591
43.1,1.4366,-3.9658,10.3644,-0.0937,0.3435,0.0347
43.12,1.5391,-3.7017,10.7887,0.0536,0.4351,0.0259
43.14,1.7819,-3.7682,10.3174,0.1157,0.2662,-0.0794
43.16,1.7054,-3.6793,9.0161,0.2478,0.0716,-0.1201
43.18,1.939,-3.5566,8.2861,0.2783,-0.1461,-0.1117
43.2,2.0754,-3.6561,8.523,0.2613,-0.2588,-0.1095
43.22,1.6443,-3.7128,8.3248,0.1778,-0.2693,-0.0772
43.24,1.3633,-3.8611,8.2913,0.1143,-0.1549,-0.0732
43.26,1.4886,-3.639,8.2836,0.0326,-0.0521,-0.061
43.28,1.339,-3.4759,8.5629,-0.0613,0.0373,-0.0323
43.3,1.6963,-3.7523,8.8188,-0.0581,0.1137,0.0205
43.32,1.144,-3.3451,8.3627,-0.0563,0.0794,0.0191
43.34,1.274,-3.2952,8.4353,-0.0827,0.0195,0.0033
43.36,1.3828,-3.6867,8.9439,-0.0734,0.0089,0.0276
43.38,1.4988,-3.5591,9.0854,0.0112,-0.0291,0.0284
43.4,1.4343,-3.5552,9.0137,0.0339,-0.021,0.0399
43.42,1.2029,-3.307,8.9257,-0.0009,0.0054,-0.0263
43.44,1.4898,-3.6037,8.8868,-0.0131,-0.0047,0.0126
43.46,1.659,-3.4064,8.9771,0.0502,0.0142,0.011
43.48,1.5135,-3.2771,8.8369,0.039,-0.0118,-0.0096
43.5,1.1993,-3.4024,8.6318,0.0144,-0.0295,0.0251
43.52,1.4107,-3.4596,8.6947,0.0354,-0.0437,-0.0291
43.54,1.3387,-3.6767,8.5944,0.0205,-0.0055,0.011
43.56,1.3447,-3.4906,8.7683,0.0131,0.0029,0.0338
43.58,1.5433,-3.4932,8.8421,0.0207,-0.0236,0.0065
43.6,1.3535,-3.6776,8.6708,0.0033,-0.0324,-0.0167
43.62,1.3576,-3.2891,8.8817,0.0326,-0.0403,0.0111
43.64,1.4093,-3.6022,8.6869,0.0229,0.0484,0.0415
43.66,1.6198,-3.6513,8.6406,0.0925,0.0686,0.011
43.68,1.2446,-3.6739,8.5357,0.0524,0.0799,0.0352
43.7,1.2475,-3.792,8.4619,0.0896,0.1152,0.0142
43.72,1.8492,-3.4894,8.3383,0.0714,0.0634,0.0011
43.74,1.4309,-3.5821,8.1749,-0.0289,-0.0082,-0.0625
43.76,1.4429,-3.5628,8.2548,-0.0753,-0.1391,-0.0532
43.78,1.3004,-3.495,8.1792,-0.1496,-0.2696,-0.0594
43.8,0.8063,-3.7291,8.034,-0.2187,-0.2794,-0.1023
43.82,0.9866,-3.507,8.4021,-0.2421,-0.1648,-0.12
43.84,1.4041,-3.2082,9.0342,-0.2588,0.0647,-0.089
43.86,0.8157,-3.5337,9.7073,-0.1643,0.2465,0.0024
43.88,1.4893,-3.4045,10.5518,-0.0397,0.3842,-0.0376
43.9,1.3994,-3.4635,10.3983,0.0462,0.3508,0.0411
43.92,1.5973,-3.491,9.5672,0.1933,0.2119,0.0458
43.94,1.9368,-3.4849,8.8815,0.2445,-0.0272,0.0539
43.96,1.6263,-3.4651,8.2953,0.229,-0.1935,0.0822
43.98,1.5001,-3.5101,8.2819,0.2592,-0.283,0.0765
44.0,1.482,-3.5554,8.3708,0.1723,-0.2531,0.0938
44.02,1.4383,-3.525,8.195,0.0705,-0.1182,0.0505
44.04,1.5447,-3.6375,8.4662,-0.043,-0.0139,0.0128
44.06,1.2926,-3.5849,8.5932,-0.0388,0.0647,0.0277
44.08,1.4758,-3.4157,8.4686,-0.0478,0.1353,-0.0383
44.1,1.5722,-3.3878,8.7216,-0.0685,0.0607,0.0101
44.12,1.5972,-3.6184,8.7055,-0.0662,0.0296,0.0085
44.14,1.4247,-3.5884,8.8122,-0.0794,0.0429,-0.0014
44.16,1.5241,-3.7235,9.1632,-0.0176,-0.0366,-0.0303
44.18,1.6447,-3.5777,8.916,0.0381,-0.0262,-0.0045
44.2,1.4043,-3.4974,8.8453,-0.0041,-0.0046,-0.0282
44.22,1.7025,-3.6724,9.1342,0.0468,-0.0062,-0.0099
44.24,1.447,-3.7316,8.7697,0.0206,-0.0309,-0.0358
44.26,1.6369,-3.5567,8.8342,0.0102,0.0165,0.027
44.28,1.6346,-3.7532,8.9852,-0.0063,0.0077,-0.0041
44.3,1.8131,-3.4873,9.1098,0.0162,-0.0058,-0.0284
44.32,1.813,-3.4326,9.0144,0.0505,-0.0024,-0.0078
44.34,1.5553,-3.6017,8.6067,0.0014,0.0086,-0.0044
44.36,1.2435,-3.6351,8.6806,-0.0043,-0.0378,-0.0025
44.38,1.3781,-3.6265,9.0253,0.0093,-0.0193,-0.0132
44.4,1.5925,-3.381,8.8493,-0.0185,-0.0107,-0.0009
44.42,1.4396,-3.4426,9.0896,-0.0074,-0.0137,-0.0289
44.44,1.5252,-3.5959,8.9927,0.0228,-0.0344,-0.0245
44.46,1.5973,-3.7564,8.6988,0.0429,-0.0046,-0.0176
44.48,1.8731,-3.3775,9.0059,0.0689,0.0522,-0.0045
44.5,1.7338,-3.4096,8.6632,0.0239,0.0829,-0.0119
44.52,1.6005,-3.4337,8.6712,0.061,0.1242,0.0118
44.54,1.4723,-3.5995,8.7367,0.0443,0.0439,0.0355
44.56,1.2877,-3.4488,8.3745,-0.0338,-0.0561,0.0285
44.58,1.3546,-3.4106,8.2619,-0.0942,-0.1472,0.0164
44.6,1.4303,-3.6934,8.3533,-0.155,-0.2096,0.069
44.62,1.1744,-3.5105,8.3904,-0.2401,-0.2154,0.0782
44.64,1.0255,-3.7994,8.7004,-0.2438,-0.1502,0.0704
44.66,0.9412,-3.8267,9.1051,-0.1753,0.0564,0.0983
44.68,1.0135,-3.8659,9.92,-0.1106,0.2445,0.0446
44.7,1.2864,-3.9182,10.0861,-0.037,0.3406,0.0049
44.72,1.6507,-3.747,10.3299,0.144,0.3211,-0.0112
44.74,1.7158,-3.8102,9.6067,0.1654,0.1306,-0.0952
44.76,1.6994,-3.7171,8.8083,0.2067,-0.0724,-0.0796
44.78,1.6974,-3.7363,8.2856,0.2305,-0.2041,-0.144
44.8,1.5268,-3.6305,8.2717,0.175,-0.2448,-0.1163
44.82,1.625,-3.3273,8.4189,0.1346,-0.221,-0.0575
44.84,1.6855,-3.6099,8.4669,0.0848,-0.0874,-0.0254
44.86,1.1609,-3.4566,7.9792,-0.0098,-0.0314,0.0024
44.88,1.3008,-3.6444,8.0288,-0.0697,0.0613,-0.0294
44.9,1.1729,-3.3268,8.35,-0.064,0.0943,0.0115
44.92,1.171,-3.58,8.5319,-0.0619,0.0946,-0.006
44.94,1.2031,-3.4585,8.6857,-0.0392,0.0309,-0.0027
44.96,1.1541,-3.2312,8.7559,-0.0365,0.0165,0.0151
44.98,1.1205,-3.3308,8.9074,0.0167,0.0234,0.0064
45.0,1.5546,-3.5124,8.5454,0.0208,-0.0125,-0.0162
45.02,1.5539,-3.6424,8.6538,0.0219,0.0116,-0.0036
45.04,1.2787,-3.916,8.5053,-0.0014,-0.06,-0.0377
45.06,1.3476,-3.4566,8.7682,0.0379,0.0387,-0.0018
45.08,1.6376,-3.453,8.7256,0.037,0.0089,-0.0073
45.1,1.4453,-3.3861,8.7379,0.0458,-0.0314,0.0123
45.12,1.4061,-3.7442,8.7106,0.0196,-0.0008,0.0163
45.14,1.4385,-3.649,8.4741,0.0249,-0.0131,0.0282
45.16,1.55,-3.6981,8.5768,0.0596,0.0592,0.0143
45.18,1.4288,-3.9354,8.6111,0.0543,0.0747,-0.0072
45.2,1.419,-3.717,8.302,0.0749,0.1091,-0.012
45.22,1.1399,-3.7779,8.3542,0.0174,0.0898,-0.0341
45.24,1.3757,-3.5998,8.2646,0.0287,-0.0312,-0.0405
45.26,1.5911,-3.7467,8.3823,-0.0457,-0.1866,-0.0778
45.28,1.6419,-3.4035,8.5973,-0.1781,-0.2546,-0.0915
45.3,1.1763,-3.455,8.2584,-0.1933,-0.2876,-0.088
45.32,1.1735,-3.3912,8.6657,-0.2444,-0.1505,-0.1132
45.34,1.2138,-3.4016,9.2505,-0.193,0.0683,-0.0784
45.36,1.3196,-3.3336,9.9386,-0.1444,0.265,-0.0441
45.38,1.5885,-3.3593,10.5376,-0.0221,0.4086,-0.0083
45.4,1.2396,-3.2691,9.9408,0.0535,0.323,0.0134
45.42,2.2526,-3.2983,9.8103,0.2315,0.2183,0.088
45.44,2.1179,-3.4302,9.1879,0.2473,-0.0152,0.0964
45.46,1.6875,-3.5034,7.9994,0.273,-0.2336,0.068
45.48,1.8925,-3.6481,8.3476,0.2362,-0.2603,0.0917
45.5,1.682,-3.4284,8.3569,0.1529,-0.2457,0.0706
45.52,1.5443,-3.6739,8.1846,0.0612,-0.1601,0.0631
45.54,1.5888,-3.7022,8.5205,-0.0186,0.0162,0.0108
45.56,1.4538,-3.4265,8.5476,-0.0792,0.097,-0.0034
45.58,1.2418,-3.8983,8.7085,-0.0664,0.111,0.0144
45.6,1.5641,-3.6899,8.8899,-0.0436,0.1305,0.0058
45.62,1.5837,-3.5553,8.6139,-0.0465,0.0214,-0.0139
45.64,1.836,-3.6211,9.0992,0.0004,0.0188,0.0087
45.66,1.5277,-3.6191,9.0287,-0.0099,-0.0125,-0.0109
45.68,1.1947,-3.5771,8.652,0.0036,0.0009,-0.0024
45.7,1.5438,-3.5612,8.6739,0.0402,-0.0447,0.0195
45.72,1.483,-3.3432,8.8208,-0.0055,-0.0158,-0.0114
45.74,1.3224,-3.624,8.7556,-0.0083,-0.0247,-0.0127
45.76,1.6033,-3.3253,8.9248,0.0116,0.0493,-0.0178
45.78,1.5585,-3.6565,8.8726,0.0465,0.0228,0.001
45.8,1.2577,-3.4468,8.7932,0.0037,-0.0306,-0.0225
45.82,1.6331,-3.3584,8.9818,0.0402,-0.0051,-0.0253
45.84,1.7798,-3.4306,9.1786,0.0258,0.0005,0.0408
45.86,1.4325,-3.7804,8.8101,0.0164,-0.0366,-0.059
45.88,1.6928,-3.2342,8.9799,0.08,0.0136,0.0074
45.9,1.6717,-3.5335,8.7966,0.0428,0.0374,0.0195
45.92,1.6792,-3.3376,8.6276,0.0779,0.1195,-0.0145
45.94,1.705,-3.1992,8.4772,0.095,0.1228,0.0281
45.96,1.3815,-3.2049,8.5755,0.0783,0.126,0.0487
45.98,1.3429,-3.6077,8.3603,-0.0391,-0.0027,0.0016
46.0,1.4685,-3.344,8.3137,-0.071,-0.1422,0.097
46.02,1.3161,-3.3806,8.3277,-0.1834,-0.2784,0.0648
46.04,0.9788,-3.5074,8.1322,-0.2528,-0.3314,0.0938
46.06,1.1871,-3.5229,8.7616,-0.2441,-0.1869,0.1595
46.08,0.9704,-3.669,8.8992,-0.2796,0.0085,0.104
46.1,1.0447,-3.6936,9.7732,-0.1604,0.2556,0.1254
46.12,1.2702,-3.8794,10.4652,-0.0743,0.4229,0.0073
46.14,1.9422,-3.6932,10.7804,0.1167,0.434,-0.0561
46.16,1.4469,-3.8468,9.4769,0.1455,0.2514,-0.057
46.18,1.7886,-3.6961,9.0626,0.2679,0.0507,-0.0687
46.2,1.8625,-3.5482,8.4437,0.2816,-0.194,-0.1375
46.22,2.0956,-3.4707,8.7107,0.3245,-0.2789,-0.0664
46.24,1.6579,-3.2674,8.5129,0.1983,-0.2846,-0.09
46.26,1.4094,-3.5531,8.335,0.0899,-0.1942,-0.0759
46.28,1.5411,-3.3259,8.6878,0.0792,-0.005,-0.0525
46.3,1.4828,-3.4239,8.5855,-0.0174,0.1067,-0.0249
46.32,1.5761,-3.5151,8.6474,-0.0427,0.1662,0.0059
46.34,1.6425,-3.5341,8.627,-0.0697,0.1056,0.0205
46.36,1.6202,-3.2841,8.6295,-0.0563,0.0786,0.0188
46.38,1.5384,-3.3974,8.7157,-0.0387,0.0019,0.0174
46.4,1.4073,-3.313,8.9938,-0.0053,0.0389,-0.0061
46.42,1.3663,-3.7363,8.8177,-0.0117,-0.0098,0.0003
46.44,1.6187,-3.5914,8.7818,0.0145,-0.0144,-0.0058
46.46,1.3933,-3.6084,8.7705,-0.022,-0.0124,0.0159
46.48,1.6595,-3.6443,8.8016,0.0081,0.0184,-0.0073
46.5,1.485,-3.7778,8.8999,0.0134,-0.0013,0.0202
46.52,1.4444,-3.613,8.736,0.0373,0.0246,0.0022
46.54,1.7671,-3.4898,8.8825,0.0267,0.0282,-0.0026
46.56,1.7325,-3.7028,8.7149,0.009,0.0189,0.0082
46.58,1.3514,-3.5932,8.8425,0.0059,-0.033,-0.0311
46.6,1.5996,-3.4726,8.8639,0.0175,0.0043,0.0086
46.62,1.4409,-3.7031,8.7429,0.0084,0.0264,-0.0156
46.64,1.3458,-3.5909,8.7176,-0.0203,0.0041,-0.0409
46.66,1.6567,-3.3919,8.6918,0.0072,-0.0214,0.0244
46.68,1.189,-3.7026,8.2301,-0.0479,-0.0391,-0.0372
46.7,1.7587,-3.4185,9.0002,0.0421,0.0307,0.0273
46.72,1.105,-3.6887,8.3711,0.0111,0.0004,-0.0023
46.74,1.4344,-3.5662,8.7695,0.0332,-0.0141,0.0208
46.76,1.5643,-3.4007,8.7429,0.0001,-0.009,-0.009
46.78,1.2365,-3.5226,8.7224,-0.0165,-0.0128,0.0065
46.8,1.8034,-3.4335,8.9009,0.0337,0.0137,0.0089
46.82,1.7986,-3.5285,8.919,0.0244,0.0243,0.0007
46.84,1.5056,-3.6376,8.7422,0.0166,0.005,0.0143
46.86,1.5673,-3.5487,9.0181,0.0225,0.0226,0.0179
46.88,1.2315,-3.68,8.5515,-0.0008,0.0132,0.0023
46.9,1.5529,-3.3785,8.9738,0.0217,0.0109,0.0224
46.92,1.3928,-3.3983,8.8947,0.0029,-0.0017,0.0287
46.94,1.5935,-3.5375,8.7989,0.0171,0.0114,-0.0021
46.96,1.5119,-3.4929,8.8045,0.0046,0.0146,-0.0085
46.98,1.4208,-3.6243,8.674,-0.014,-0.0085,-0.0012
47.0,1.5953,-3.5108,8.832,0.0276,0.0081,-0.0032
47.02,1.4781,-3.3997,8.7696,-0.0125,-0.0145,0.0014
47.04,1.2742,-3.5021,8.8229,-0.0065,-0.0054,-0.0022
47.06,1.264,-3.6867,8.7755,0.0009,-0.0132,-0.0072
47.08,1.514,-3.5974,8.6994,0.0031,0.0131,-0.0234
47.1,1.6523,-3.4572,8.9209,0.0078,0.0092,0.0291
47.12,1.4679,-3.5596,8.7314,-0.0241,0.0007,-0.0293
47.14,1.3074,-3.6239,8.8378,0.0025,0.0052,0.0028
47.16,1.3699,-3.5472,8.722,-0.0077,0.0032,0.0005
47.18,1.4381,-3.5634,8.753,-0.0006,0.007,0.0044
47.2,1.4517,-3.2516,8.7929,-0.0023,0.0181,-0.0036
47.22,1.7661,-3.4376,8.9659,0.0293,0.0279,0.0167
47.24,1.3906,-3.4739,8.6788,-0.0229,-0.0085,0.0036
47.26,1.5415,-3.5485,9.031,0.0138,0.0181,-0.0025
47.28,1.4298,-3.6017,8.8263,0.0146,0.0114,0.0037
47.3,1.6173,-3.4655,8.9351,0.0171,-0.0056,-0.0018
47.32,1.5428,-3.4975,8.8439,0.0037,-0.002,0.003
47.34,1.2208,-3.5835,8.508,-0.025,-0.0188,-0.016
47.36,1.5202,-3.6106,8.7836,0.0027,-0.0047,0.0004
47.38,1.2701,-3.5956,8.4468,-0.0366,-0.0174,-0.0172
47.4,1.4042,-3.5638,8.6335,-0.0167,-0.0111,-0.0004
47.42,1.6483,-3.5516,8.9044,0.0132,0.005,0.0065
47.44,1.5169,-3.5983,8.7838,0.0062,0.0071,0.0027
47.46,1.2474,-3.5609,8.5175,-0.033,-0.0198,-0.0156
47.48,1.3271,-3.466,8.6858,-0.0159,-0.0076,-0.013
47.5,1.4683,-3.597,8.8536,0.0058,0.0038,0.0031
47.52,1.2841,-3.6101,8.704,-0.0141,-0.0086,-0.0069
47.54,1.53,-3.5179,8.874,0.009,0.0061,0.0034
47.56,1.462,-3.5027,8.8379,-0.0017,-0.0006,-0.0031
47.58,1.4141,-3.6039,8.764,0.0007,0.0018,0.0015
47.6,1.2771,-3.5628,8.5868,-0.0271,-0.0204,-0.0142
47.62,1.4662,-3.6106,8.9043,0.0103,0.0075,0.005
47.64,1.3059,-3.5831,8.692,-0.0189,-0.0142,-0.0094
47.66,1.4725,-3.5295,8.6629,-0.0135,-0.0101,-0.0067
47.68,1.4386,-3.5013,8.7716,0.0008,0.0006,0.0004
47.7,1.3987,-3.5977,8.7526,-0.0053,-0.004,-0.0027
47.72,1.432,-3.5171,8.6983,-0.0058,-0.0043,-0.0029
47.74,1.4838,-3.6008,8.8753,0.0056,0.0042,0.0028
47.76,1.4262,-3.6023,8.85,-0.0001,-0.0001,-0.0001
47.78,1.5231,-3.4877,8.9845,0.0232,0.0174,0.0116
47.8,1.4788,-3.4068,8.8309,0.0067,0.0051,0.0034
47.82,1.5848,-3.5464,8.7922,0.0038,0.0029,0.0019
47.84,1.6021,-3.4249,9.0736,0.0354,0.0266,0.0177
47.86,1.4075,-3.517,8.7543,-0.0026,-0.0019,-0.0013
47.88,1.3315,-3.5286,8.6975,-0.0228,-0.0171,-0.0114
47.9,1.4365,-3.57,8.6842,-0.0043,-0.0032,-0.0022
47.92,1.4439,-3.4804,8.7543,-0.0023,-0.0017,-0.0011
47.94,1.6605,-3.4911,8.9468,0.0241,0.0181,0.0121
47.96,1.4136,-3.5262,8.6428,0.0001,0.0001,0.0
47.98,1.5007,-3.5893,8.8476,0.0019,0.0014,0.001
