time_s,acc_x,acc_y,acc_z,gyro_x,gyro_y,gyro_z
0.0,0.1674,-0.2591,9.6452,-0.0115,-0.0086,-0.0057
0.02,0.4217,-0.1015,9.9146,0.0197,0.0148,0.0098
0.04,0.2856,-0.2016,9.7438,0.0037,0.0028,0.0019
0.06,0.3298,-0.0715,9.9246,0.02,0.015,0.01
0.08,0.2533,-0.1863,9.7686,-0.0074,-0.0055,-0.0037
0.1,0.3793,-0.2243,9.8455,0.0127,0.0096,0.0064
0.12,0.3776,-0.1736,9.7613,0.0072,0.0054,0.0036
0.14,0.3591,-0.1561,9.7902,-0.0013,-0.001,-0.0006
0.16,0.1578,-0.2652,9.5324,-0.0357,-0.0268,-0.0179
0.18,0.404,-0.2023,9.888,0.0121,0.0091,0.006
0.2,0.2238,-0.2474,9.6984,-0.0136,-0.0102,-0.0068
0.22,0.2771,-0.2112,9.8633,0.0045,0.0034,0.0023
0.24,0.2137,-0.2717,9.6478,-0.0128,-0.0096,-0.0064
0.26,0.0554,-0.3223,9.5955,-0.0379,-0.0284,-0.0189
0.28,0.1979,-0.3536,9.5929,-0.0329,-0.0247,-0.0164
0.3,0.4442,0.1123,10.0662,0.0432,0.0324,0.0216
0.32,0.199,-0.1766,9.707,-0.0245,-0.0184,-0.0123
0.34,0.2931,-0.0715,9.8048,0.0025,0.0019,0.0013
0.36,0.113,-0.3573,9.5422,-0.0434,-0.0325,-0.0217
0.38,0.4286,-0.0431,9.8483,0.0112,0.0084,0.0056
0.4,0.2544,-0.1671,9.7591,-0.0088,-0.0066,-0.0044
0.42,0.3779,-0.0493,9.8723,0.0175,0.0131,0.0088
0.44,0.3246,-0.1324,9.7329,-0.0008,-0.0006,-0.0004
0.46,0.4119,-0.0643,9.8868,0.0172,0.0129,0.0086
0.48,0.1002,-0.2296,9.7306,-0.0182,-0.0136,-0.0091
0.5,0.3285,-0.243,9.7183,-0.0055,-0.0041,-0.0027
0.52,0.2419,-0.1402,9.8474,-0.0064,-0.0048,-0.0032
0.54,0.1014,-0.182,9.6929,-0.0245,-0.0184,-0.0123
0.56,0.1135,-0.4295,9.5263,-0.0354,-0.0266,-0.0177
0.58,0.3562,-0.2154,9.7878,0.0057,0.0043,0.0028
0.6,0.1927,-0.2202,9.5462,-0.0282,-0.0212,-0.0141
0.62,0.1616,-0.1759,9.7017,-0.0115,-0.0086,-0.0057
0.64,0.2138,-0.1956,9.6262,-0.01,-0.0075,-0.005
0.66,0.3767,-0.1531,9.8119,0.0152,0.0114,0.0076
0.68,0.3163,-0.1385,9.7543,0.0017,0.0013,0.0009
0.7,0.3763,-0.2393,9.7631,-0.0122,-0.0092,-0.0061
0.72,0.1873,-0.3329,9.5918,-0.021,-0.0158,-0.0105
0.74,0.2604,-0.0765,9.7809,-0.0078,-0.0058,-0.0039
0.76,0.3749,-0.0578,9.8917,0.0191,0.0143,0.0095
0.78,0.3703,-0.1126,9.7402,0.0051,0.0038,0.0025
0.8,0.2668,-0.1668,9.7833,0.0116,0.0087,0.0058
0.82,0.2919,-0.1666,9.6368,-0.0104,-0.0078,-0.0052
0.84,0.3252,-0.0484,9.7937,0.0059,0.0044,0.0029
0.86,0.2722,-0.1792,9.705,-0.0063,-0.0047,-0.0031
0.88,0.1847,-0.3134,9.6879,-0.0253,-0.019,-0.0127
0.9,0.301,-0.1531,9.6787,0.0041,0.003,0.002
0.92,0.3118,-0.1217,9.6107,-0.0118,-0.0089,-0.0059
0.94,0.4053,-0.0618,9.7625,0.0042,0.0032,0.0021
0.96,0.2153,-0.1475,9.7526,-0.0067,-0.005,-0.0034
0.98,0.237,-0.1616,9.726,-0.0098,-0.0074,-0.0049
1.0,0.3808,-0.2644,9.8465,0.0133,0.01,0.0067
1.02,0.2918,-0.2384,9.8434,0.0041,0.0031,0.0021
1.04,0.2646,-0.1183,9.8237,-0.0004,-0.0003,-0.0002
1.06,0.2676,-0.2524,9.5691,-0.0128,-0.0096,-0.0064
1.08,0.0303,-0.2741,9.6306,-0.0292,-0.0219,-0.0146
1.1,0.1639,-0.3167,9.484,-0.034,-0.0255,-0.017
1.12,0.2464,-0.2261,9.8145,0.0028,0.0021,0.0014
1.14,0.2825,-0.1544,9.7498,-0.0081,-0.006,-0.004
1.16,0.3227,-0.2502,9.7537,-0.0043,-0.0032,-0.0021
1.18,0.1872,-0.2832,9.709,-0.0126,-0.0094,-0.0063
1.2,0.0871,-0.3351,9.513,-0.0354,-0.0266,-0.0177
1.22,0.1831,-0.2276,9.6931,-0.0164,-0.0123,-0.0082
1.24,0.3126,-0.2351,9.6662,-0.0073,-0.0054,-0.0036
1.26,0.3744,-0.0176,9.8004,0.0131,0.0098,0.0065
1.28,0.3711,-0.2459,9.6706,-0.0009,-0.0007,-0.0004
1.3,0.4986,0.0186,9.9099,0.0375,0.0281,0.0188
1.32,0.0953,-0.2825,9.4943,-0.035,-0.0263,-0.0175
1.34,0.3237,-0.1954,9.7591,-0.0061,-0.0046,-0.003
1.36,0.1668,-0.1968,9.7334,-0.0099,-0.0074,-0.0049
1.38,0.2644,-0.0515,9.9398,0.0185,0.0138,0.0092
1.4,0.0613,-0.3556,9.5571,-0.0365,-0.0274,-0.0183
1.42,0.2922,-0.2568,9.7882,-0.006,-0.0045,-0.003
1.44,0.315,-0.305,9.7528,-0.0014,-0.0011,-0.0007
1.46,0.1938,-0.2256,9.5083,-0.0283,-0.0212,-0.0141
1.48,0.343,-0.0778,9.8709,0.0077,0.0058,0.0039
1.5,0.3899,-0.0954,9.7651,0.0088,0.0066,0.0044
1.52,0.3311,-0.2295,9.7864,0.0014,0.0011,0.0007
1.54,0.3699,-0.0854,9.9418,0.0189,0.0141,0.0094
1.56,0.3395,-0.0983,9.7085,-0.0034,-0.0025,-0.0017
1.58,0.3746,-0.0309,9.9029,0.016,0.012,0.008
1.6,0.4602,-0.0934,9.8265,0.0159,0.0119,0.0079
1.62,0.2327,-0.3625,9.5711,-0.0346,-0.026,-0.0173
1.64,0.3538,-0.1602,9.8062,0.0037,0.0028,0.0018
1.66,0.3699,-0.0712,9.8755,0.0132,0.0099,0.0066
1.68,0.1794,-0.1929,9.7155,-0.013,-0.0097,-0.0065
1.7,0.4421,-0.0233,10.0681,0.0335,0.0251,0.0168
1.72,0.2404,-0.1242,9.6986,-0.0066,-0.0057,-0.0027
1.74,0.3702,-0.147,9.8992,0.0109,0.0081,0.0054
1.76,0.2513,-0.3268,9.6511,-0.0122,-0.0094,-0.0063
1.78,0.217,-0.3217,9.5943,-0.0236,-0.0164,-0.0107
1.8,0.3455,-0.1296,9.7844,0.0033,0.0056,0.0031
1.82,0.3405,-0.0527,9.858,0.0155,0.0162,0.0077
1.84,0.2199,-0.2852,9.7651,-0.0202,-0.0052,-0.0139
1.86,0.2876,-0.1111,9.705,-0.0088,-0.0043,-0.0031
1.88,0.2577,-0.3194,9.6503,-0.021,-0.0128,-0.0043
1.9,0.1806,-0.2822,9.6144,-0.0172,-0.0103,-0.0081
1.92,0.1124,-0.0942,9.6688,-0.0029,-0.0026,-0.0054
1.94,0.2707,-0.0488,9.841,0.0206,0.0191,0.0127
1.96,0.5053,-0.1814,9.8078,0.0078,0.0169,0.0154
1.98,0.1937,-0.2801,9.6745,-0.0154,0.0044,-0.0165
2.0,0.1788,-0.3683,9.5306,-0.0476,-0.0298,-0.0241
2.02,0.4616,-0.0314,9.9136,0.0218,0.0157,0.0134
2.04,0.4602,-0.1408,9.9304,0.0105,0.0172,-0.0057
2.06,0.4611,-0.1436,10.0266,0.0285,0.0291,0.0038
2.08,0.4683,-0.0326,9.8698,0.0105,0.0028,0.0014
2.1,0.3092,-0.2422,9.7039,-0.018,0.0012,-0.0224
2.12,0.2647,-0.1845,9.7974,-0.0095,-0.0127,-0.0126
2.14,0.2864,0.071,9.7023,0.0257,0.008,0.0114
2.16,-0.1502,-0.5612,9.5959,-0.0409,-0.0245,-0.0125
2.18,0.0804,-0.3911,9.6011,-0.0259,-0.0364,-0.0153
2.2,0.2237,-0.0276,9.8597,-0.0017,0.001,0.0096
2.22,0.4369,-0.2031,9.7932,0.0106,0.0089,0.0209
2.24,0.4576,-0.1518,9.9987,0.0264,0.0377,0.0138
2.26,0.3686,-0.071,10.1018,0.0255,0.0331,0.0178
2.28,0.5141,-0.1007,10.0004,0.0145,-0.0007,-0.0116
2.3,0.3055,-0.4381,9.7721,-0.0104,-0.0149,-0.0071
2.32,0.3636,-0.3469,9.7813,0.0357,0.001,0.0321
2.34,0.4088,-0.1899,9.6286,0.003,0.0039,-0.0017
2.36,0.2496,-0.2404,9.9552,0.0065,0.0366,0.0082
2.38,0.2237,-0.3553,9.654,-0.0164,-0.0261,-0.0242
2.4,0.1563,-0.4182,9.9399,0.0185,-0.029,0.0034
2.42,0.3379,-0.0477,10.0343,0.0497,0.008,0.0049
2.44,0.0703,0.0098,9.97,0.0369,0.0102,0.0017
2.46,0.5682,-0.2107,9.6559,0.05,0.0355,-0.0074
2.48,0.823,0.0695,9.8053,0.1284,0.1103,0.0361
2.5,0.3269,-0.3595,9.6733,0.0869,0.1017,-0.0189
2.52,0.162,-0.1063,9.4841,0.0769,0.0988,-0.0194
2.54,0.1566,-0.1089,9.3265,0.0468,0.0617,-0.0344
2.56,0.3263,-0.3396,9.3977,-0.0468,-0.0738,-0.0391
2.58,-0.0446,-0.3448,9.0442,-0.206,-0.2255,-0.1075
2.6,-0.1244,-0.2963,9.1246,-0.3439,-0.325,-0.119
2.62,-0.4705,0.0963,9.2181,-0.4096,-0.2882,-0.1285
2.64,-0.7266,-0.486,9.5697,-0.5334,-0.133,-0.1213
2.66,-0.7338,0.1477,10.4831,-0.4013,0.1661,-0.1058
2.68,-0.2217,0.0591,11.756,-0.2152,0.3628,-0.0324
2.7,0.2951,0.0842,12.3773,0.006,0.4671,-0.0165
2.72,0.7822,0.0746,11.7683,0.3109,0.4132,0.0449
2.74,1.4083,0.2089,10.8944,0.455,0.1984,0.0882
2.76,1.4037,-0.1161,9.4182,0.5264,-0.1071,0.139
2.78,1.1966,0.1758,9.2211,0.541,-0.2585,0.1317
2.8,0.8138,-0.3836,9.1552,0.3617,-0.3193,0.1369
2.82,0.4489,0.1095,9.0706,0.2446,-0.268,0.1146
2.84,0.4566,-0.1677,9.1043,0.0873,-0.0518,0.0891
2.86,0.4892,-0.3558,9.1429,-0.0626,0.0492,0.026
2.88,0.3197,-0.083,9.5212,-0.1031,0.1372,0.0268
2.9,0.1151,-0.1916,9.4719,-0.16,0.1345,0.0074
2.92,0.069,-0.3457,9.6317,-0.1475,0.1329,-0.0733
2.94,-0.021,-0.1595,9.6352,-0.0785,0.0095,-0.025
2.96,0.1031,-0.1713,9.7132,-0.0537,-0.0594,-0.0017
2.98,0.3947,-0.1446,10.0942,0.0237,0.0805,-0.0097
3.0,-0.1311,-0.301,9.9033,0.0021,-0.0319,-0.0158
3.02,0.3949,-0.5037,9.6695,-0.0202,-0.0241,-0.0795
3.04,0.4743,-0.2097,9.9161,0.0182,0.0174,-0.0284
3.06,0.3304,-0.264,9.8582,0.0143,0.0025,0.0331
3.08,0.5428,-0.1645,9.9421,0.0195,-0.0053,0.016
3.1,0.7885,0.1996,10.0264,0.0476,-0.0164,0.0225
3.12,0.2999,0.0482,9.7773,-0.0021,-0.0615,-0.0204
3.14,0.2241,-0.2646,9.839,-0.0686,-0.0086,-0.0262
3.16,0.3697,-0.0168,10.1578,0.0026,0.0058,-0.0034
3.18,0.5042,-0.1763,9.9832,0.0704,-0.0295,0.0168
3.2,0.4487,-0.187,9.9303,0.0953,-0.0285,-0.0086
3.22,0.2737,-0.0616,9.835,0.0814,0.0557,-0.0822
3.24,0.3706,-0.3097,9.8559,0.1155,0.0713,-0.0492
3.26,0.564,-0.2982,9.4001,0.119,0.1641,-0.0073
3.28,0.5863,-0.0727,9.3077,0.1281,0.1787,-0.0066
3.3,0.5418,-0.3519,9.2313,0.0972,0.0942,0.0561
3.32,0.4339,-0.1199,9.1413,-0.0423,-0.0496,0.0603
3.34,0.1079,-0.084,9.1329,-0.2309,-0.211,0.1075
3.36,-0.1112,0.0113,8.9817,-0.4133,-0.3279,0.1836
3.38,-0.2431,-0.1823,9.0868,-0.5578,-0.3298,0.1482
3.4,-1.015,-0.1727,9.5646,-0.5707,-0.1646,0.1646
3.42,-0.7172,-0.4437,10.6155,-0.4748,0.1535,0.1254
3.44,-0.6056,-0.4728,12.0087,-0.3541,0.3877,0.0659
3.46,0.195,-0.5377,12.8773,-0.0019,0.5521,-0.043
3.48,0.9378,-0.5865,12.6487,0.2338,0.478,-0.0719
3.5,1.5257,-0.3722,11.142,0.4458,0.2281,-0.1378
3.52,1.1661,-0.5356,9.4381,0.5957,-0.096,-0.145
3.54,1.2559,-0.2989,8.943,0.5626,-0.3351,-0.1529
3.56,0.5298,-0.3546,8.4686,0.3917,-0.3964,-0.1821
3.58,0.5386,-0.1159,9.0033,0.2885,-0.2804,-0.0846
3.6,0.0629,-0.0575,8.8852,0.1315,-0.124,-0.1016
3.62,-0.0263,-0.1524,8.9699,-0.0092,0.0446,-0.0328
3.64,-0.0255,-0.0672,9.3703,-0.1125,0.1225,-0.0683
3.66,-0.1225,-0.3736,9.3742,-0.1705,0.1428,0.0004
3.68,-0.1421,-0.1334,9.4796,-0.1662,0.1015,0.0148
3.7,-0.2504,-0.1074,9.5784,-0.1469,0.0758,-0.0171
3.72,0.3082,-0.3521,9.953,-0.0358,-0.0334,0.056
3.74,-0.1815,-0.2489,9.8042,-0.0442,-0.0064,0.0422
3.76,-0.2393,-0.1277,9.7384,-0.0033,-0.0373,0.0012
3.78,0.0051,-0.4358,10.0226,0.0406,-0.0018,-0.0104
3.8,0.2398,-0.2491,9.9807,0.0161,-0.0297,-0.0236
3.82,0.3764,-0.1951,9.9672,0.0104,-0.0198,0.0088
3.84,0.2706,-0.3171,9.8841,0.0558,-0.0146,-0.0271
3.86,0.3162,-0.0914,9.7365,0.0726,0.0227,0.0199
3.88,0.4264,-0.4209,9.5246,0.0912,0.0722,0.0453
3.9,0.1962,-0.33,9.4867,0.1187,0.1299,0.0175
3.92,0.3853,-0.2522,9.5131,0.1242,0.1588,0.0283
3.94,-0.0505,-0.3561,9.0316,0.0936,0.1484,0.0504
3.96,0.1556,-0.6021,8.5535,0.0334,0.0159,-0.089
3.98,-0.3305,-0.5318,8.7701,-0.1568,-0.1516,-0.1125
4.0,-0.3124,-0.4758,8.9896,-0.2467,-0.3213,-0.1214
4.02,-0.0494,-0.3046,8.6933,-0.4035,-0.3518,-0.116
4.04,-1.039,-0.2993,8.5039,-0.5558,-0.3,-0.1856
4.06,-0.8858,-0.3154,9.5316,-0.5042,-0.0506,-0.1537
4.08,-0.8923,0.1022,10.6963,-0.3775,0.2113,-0.1114
4.1,0.1263,0.0828,12.4726,-0.1689,0.4285,-0.0577
4.12,0.3889,-0.1908,12.5694,0.1026,0.4765,0.0297
4.14,0.8466,0.1622,11.6736,0.3209,0.352,0.0337
4.16,1.3382,-0.3807,10.377,0.4567,0.0725,0.0816
4.18,0.9684,0.1935,9.3959,0.529,-0.1633,0.122
4.2,0.9998,-0.1484,8.8796,0.5633,-0.319,0.0964
4.22,0.7018,-0.4033,8.9716,0.3618,-0.3025,0.0993
4.24,0.4884,-0.2351,8.9298,0.2306,-0.1489,0.1499
4.26,0.3019,-0.6307,8.7234,0.0332,-0.0168,0.0272
4.28,0.2409,-0.2962,9.0019,-0.0598,0.0614,0.0602
4.3,-0.1603,-0.4875,9.1401,-0.1668,0.1585,-0.0294
4.32,-0.0659,-0.7035,9.2282,-0.117,0.1598,-0.022
4.34,-0.1045,-0.3515,9.594,-0.1504,0.1071,-0.0194
4.36,0.0511,-0.209,9.4957,-0.112,0.0343,-0.0183
4.38,0.2997,-0.3034,9.82,-0.016,-0.0402,0.0049
4.4,0.1654,-0.1588,9.8242,-0.0414,-0.0617,-0.0123
4.42,0.2029,0.03,9.8425,0.0206,0.0261,-0.0105
4.44,0.0559,-0.2454,10.0768,0.0187,-0.0346,-0.0025
4.46,0.2147,-0.0978,9.7835,0.0282,-0.0554,-0.0661
4.48,0.5168,-0.2399,9.5924,0.0765,-0.0315,-0.0179
4.5,0.2715,-0.023,9.5902,0.1204,0.032,0.0204
4.52,0.7102,0.0211,9.7138,0.1559,0.1202,-0.0251
4.54,0.4803,-0.0624,9.4624,0.1698,0.1578,-0.0126
4.56,0.0391,-0.3429,9.1324,0.0958,0.1228,-0.0206
4.58,0.1372,0.116,9.1409,0.0814,0.0392,0.0423
4.6,-0.0445,0.0425,9.3216,-0.0455,-0.098,0.0851
4.62,0.0314,-0.1461,8.9438,-0.2423,-0.3011,0.0879
4.64,-0.3211,0.0089,9.208,-0.3955,-0.3472,0.1377
4.66,-0.6853,-0.1912,9.038,-0.5331,-0.3475,0.1516
4.68,-0.7974,-0.2316,9.7441,-0.5234,-0.163,0.1478
4.7,-0.9202,-0.4092,10.7955,-0.5111,0.1623,0.0807
4.72,-0.2348,-0.623,12.1988,-0.2153,0.4108,0.0629
4.74,0.7509,-0.3359,13.1434,0.0334,0.5367,-0.017
4.76,0.8923,-0.3515,12.0361,0.1882,0.3565,-0.0792
4.78,1.4049,-0.24,10.932,0.4339,0.1704,-0.1496
4.8,1.2382,-0.4723,9.341,0.5735,-0.126,-0.1506
4.82,1.3908,-0.194,9.2055,0.5654,-0.2782,-0.1608
4.84,0.8033,0.0303,9.006,0.4409,-0.3612,-0.1432
4.86,0.3458,0.0696,9.1125,0.2845,-0.2432,-0.104
4.88,0.1787,-0.0403,8.8496,0.0483,-0.1273,-0.0622
4.9,0.4503,0.2143,9.2007,-0.0214,0.0919,-0.0471
4.92,0.1766,-0.2667,9.5012,-0.1313,0.0896,-0.0186
4.94,0.3515,-0.1157,9.6545,-0.1546,0.1533,0.0077
4.96,0.2018,0.164,9.6962,-0.1692,0.0892,-0.0053
4.98,0.275,-0.16,10.0091,-0.0354,0.0427,0.0722
5.0,0.333,0.0492,9.8966,-0.0459,0.0149,0.0236
5.02,0.4271,-0.083,9.8956,-0.0352,-0.0532,0.0026
5.04,0.2643,-0.389,10.0709,-0.0406,-0.0645,-0.0148
5.06,0.2398,-0.2534,10.023,0.0081,-0.0733,-0.0128
5.08,0.4099,-0.0391,9.9326,0.0452,-0.0443,0.0098
5.1,0.5077,-0.2304,10.0318,0.0939,-0.0064,0.014
5.12,0.7759,-0.2947,9.6406,0.1269,0.0448,0.0057
5.14,0.6712,-0.34,9.4968,0.1312,0.1333,0.0086
5.16,0.4949,-0.4054,9.2504,0.1025,0.1447,0.0144
5.18,0.2304,-0.469,9.4106,0.1303,0.1597,-0.0255
5.2,0.3428,-0.0805,9.2849,0.0446,0.0591,-0.0663
5.22,0.3927,-0.1454,9.0591,-0.1711,-0.1062,-0.0901
5.24,0.0987,-0.2784,8.7377,-0.3067,-0.3118,-0.1298
5.26,-0.2794,0.0036,9.0703,-0.4971,-0.3872,-0.1497
5.28,-0.4147,0.3021,9.2321,-0.5976,-0.3444,-0.0979
5.3,-1.3529,0.1357,9.7747,-0.6176,-0.0925,-0.166
5.32,-1.0022,0.1793,11.3888,-0.4484,0.2533,-0.1077
5.34,-0.2965,0.2317,12.9241,-0.2361,0.5127,-0.0841
5.36,0.522,0.2725,13.3575,0.1333,0.5559,0.0556
5.38,1.1511,0.312,12.6077,0.3725,0.4342,0.1061
5.4,1.3506,0.0609,10.5158,0.5632,0.0974,0.0849
5.42,1.4631,0.1051,9.3798,0.5487,-0.2384,0.1209
5.44,0.9377,-0.1529,8.905,0.578,-0.4183,0.1553
5.46,1.1246,-0.0029,9.1109,0.4222,-0.3975,0.1679
5.48,0.9031,0.0272,8.9557,0.2535,-0.2241,0.1473
5.5,0.4299,-0.119,9.1343,0.0286,-0.0632,0.055
5.52,0.1455,-0.566,9.2027,-0.0785,0.0876,0.016
5.54,0.6527,0.2336,9.9117,-0.0818,0.218,0.0474
5.56,0.2882,-0.6907,9.1205,-0.1462,0.1236,-0.0029
5.58,-0.2285,-0.0998,9.5963,-0.1052,0.1034,-0.0606
5.6,-0.2923,-0.0696,9.8529,-0.0968,-0.0065,-0.0759
5.62,0.6256,0.1835,10.4413,-0.0514,-0.0016,-0.0506
5.64,0.5803,0.062,10.2834,0.0439,-0.0256,0.0052
5.66,0.2613,0.0054,9.9766,0.0382,0.0284,-0.0225
5.68,0.4295,-0.0971,9.8494,0.0264,-0.002,0.0118
5.7,-0.0764,-0.309,9.7192,-0.0076,-0.0175,-0.0048
5.72,-0.0139,-0.6352,9.74,0.0045,-0.0197,-0.048
5.74,0.3208,0.0198,9.7916,0.0547,-0.0476,0.0251
5.76,0.463,-0.135,9.8712,0.0814,-0.0162,-0.0211
5.78,0.27,-0.1356,9.5834,0.087,0.0326,-0.0711
5.8,0.725,-0.1002,9.7586,0.1819,0.1287,-0.036
5.82,0.4192,-0.3542,9.2026,0.138,0.1505,0.0042
5.84,0.4021,0.2284,9.5364,0.2251,0.1911,-0.0133
5.86,0.4066,0.1948,9.1214,0.0922,0.1162,0.0504
5.88,0.1576,-0.1416,8.9094,-0.0352,-0.0478,0.0885
5.9,0.1777,0.1808,9.2807,-0.1933,-0.2494,0.1132
5.92,-0.0607,0.0111,8.914,-0.4169,-0.387,0.164
5.94,-0.3616,-0.261,8.831,-0.5029,-0.345,0.1392
5.96,-1.1709,-0.669,9.2383,-0.6779,-0.2338,0.1314
5.98,-1.1892,-0.2022,10.6932,-0.4848,0.099,0.1281
6.0,-0.4066,-0.2584,12.3001,-0.3275,0.4274,0.0881
6.02,-0.2346,-0.9513,12.7003,-0.0887,0.5698,-0.0246
6.04,0.7949,-0.4567,13.0439,0.2455,0.5365,-0.0459
6.06,1.3202,-0.9398,11.0083,0.4769,0.2316,-0.1236
6.08,1.5337,-0.165,9.5828,0.6237,-0.0626,-0.1637
6.1,1.6541,-0.2204,8.9779,0.6222,-0.2655,-0.1507
6.12,0.6786,-0.0408,8.5031,0.5145,-0.424,-0.154
6.14,0.9445,0.1286,8.9585,0.3335,-0.3275,-0.1016
6.16,-0.0864,-0.319,8.565,0.1208,-0.2033,-0.1135
6.18,0.4056,0.0102,8.5518,-0.0814,0.0145,-0.0872
6.2,0.2952,-0.3266,9.0989,-0.1536,0.1243,0.0175
6.22,0.0447,-0.2031,9.1121,-0.1414,0.17,-0.0132
6.24,-0.0035,-0.1816,9.1317,-0.1943,0.0674,-0.0006
6.26,0.1523,0.0528,9.7725,-0.1043,0.0489,0.0305
6.28,-0.2227,-0.2982,9.6634,-0.099,-0.0273,-0.0143
6.3,-0.266,-0.1173,9.8527,-0.0784,-0.0591,0.0084
6.32,-0.1723,-0.3883,9.8488,-0.0372,-0.0511,-0.0015
6.34,0.0783,-0.4303,9.7613,0.0208,-0.0303,0.0503
6.36,0.0398,-0.4791,9.894,0.0363,0.0289,0.0011
6.38,0.3045,-0.0596,9.6318,0.0272,0.0013,-0.0026
6.4,0.024,-0.4122,9.2598,0.0259,0.0125,-0.0115
6.42,0.1287,-0.1533,9.4063,-0.0087,-0.0186,0.0451
6.44,0.1713,-0.277,9.666,0.0277,0.0143,0.0018
6.46,0.2652,-0.2339,9.6303,-0.0077,-0.0179,0.0038
6.48,0.1143,-0.1179,9.8073,0.018,-0.0319,0.0221
6.5,0.0601,-0.4834,9.8533,-0.0073,-0.0352,-0.0078
6.52,0.2509,-0.218,10.0383,0.1019,0.0041,0.0661
6.54,0.2564,0.1254,9.8068,0.083,0.0337,0.016
6.56,0.1959,-0.5905,9.6409,0.1212,0.0921,0.0124
6.58,0.4842,-0.3853,9.2936,0.1969,0.1796,0.0517
6.6,0.0744,-0.1881,9.2311,0.1867,0.1594,0.0246
6.62,0.3019,-0.2004,8.9289,0.1241,0.1708,-0.0345
6.64,0.3342,-0.1488,8.9807,0.0256,-0.017,-0.0251
6.66,0.091,-0.1036,8.9574,-0.1239,-0.1754,-0.0648
6.68,0.0915,-0.5955,8.6893,-0.3306,-0.3446,-0.1385
6.7,-0.2777,-0.3259,8.4899,-0.4688,-0.4369,-0.1572
6.72,-0.6603,0.1433,9.1425,-0.5816,-0.2731,-0.1316
6.74,-1.2779,-0.1831,9.9528,-0.591,-0.1117,-0.1933
6.76,-1.1668,-0.0013,11.0831,-0.4099,0.29,-0.1302
6.78,-0.2632,0.3354,12.8669,-0.1466,0.5116,-0.048
6.8,0.4863,0.0346,12.7422,0.1243,0.5255,-0.0044
6.82,1.1485,0.1233,12.125,0.3195,0.3683,0.1102
6.84,1.4183,-0.3663,10.0667,0.5112,0.0037,0.101
6.86,1.3577,-0.1178,9.3213,0.6032,-0.2103,0.133
6.88,1.0508,-0.1149,9.0112,0.6026,-0.3748,0.1489
6.9,0.8145,-0.3345,8.9425,0.3717,-0.3621,0.124
6.92,0.1864,-0.4136,9.029,0.1785,-0.235,0.1203
6.94,0.3479,-0.4625,9.0613,0.0218,-0.0503,0.0883
6.96,0.0115,-0.2978,9.1004,-0.0898,0.1091,0.045
6.98,-0.1092,-0.4065,9.1511,-0.1547,0.1371,0.0306
7.0,0.0934,-0.4024,9.5516,-0.116,0.1565,-0.0122
7.02,0.1154,-0.2608,9.5727,-0.0962,0.0834,-0.0381
7.04,0.1261,-0.4484,9.5132,-0.0636,-0.0126,-0.0804
7.06,0.1613,-0.3483,9.8075,-0.039,-0.0026,-0.0176
7.08,0.0764,-0.37,9.701,-0.0626,-0.0465,-0.0761
7.1,0.3429,-0.3689,9.7206,-0.0397,-0.0383,-0.0214
7.12,0.5681,0.0311,10.0574,0.056,0.0045,0.0259
7.14,0.3228,-0.3086,9.8372,0.036,-0.0117,0.022
7.16,0.3442,-0.2127,9.7321,0.0456,-0.0059,0.0057
7.18,0.1128,-0.1088,9.801,0.0175,0.0315,0.0109
7.2,0.116,-0.2854,9.7574,0.0016,-0.0102,-0.0016
7.22,0.3049,-0.183,9.9219,0.0407,-0.015,-0.0101
7.24,0.1693,-0.2308,9.9816,-0.0212,0.0057,0.0536
7.26,0.4375,0.059,9.9296,0.0315,0.0279,-0.035
7.28,0.6222,0.0402,9.944,0.0924,0.0302,0.0027
7.3,0.4595,-0.4902,9.7928,0.1156,0.0269,-0.0463
7.32,0.5196,-0.0932,9.4565,0.1333,0.0853,-0.0384
7.34,0.7662,0.3794,9.8571,0.1969,0.1566,0.0145
7.36,0.503,0.1639,9.4866,0.1362,0.1468,0.0203
7.38,0.1611,0.024,9.1614,0.0058,0.026,0.0125
7.4,0.3337,0.2079,9.4872,-0.0757,-0.1073,0.0651
7.42,0.2064,0.1885,9.139,-0.2037,-0.2353,0.1513
7.44,-0.2155,-0.2939,8.7527,-0.4353,-0.3708,0.1019
7.46,-0.5594,0.0699,9.4085,-0.4261,-0.2591,0.1313
7.48,-0.6979,-0.2007,9.8259,-0.4486,-0.0794,0.1507
7.5,-0.9061,-0.5178,10.5939,-0.3933,0.1619,0.0625
7.52,-0.2782,-0.1932,12.3445,-0.2164,0.3815,0.0725
7.54,0.4928,0.0185,13.1635,0.0838,0.4916,0.0325
7.56,0.9956,-0.5428,12.0508,0.2132,0.3634,-0.1062
7.58,1.317,-0.3692,10.8384,0.3889,0.1541,-0.0865
7.6,1.5216,-0.1408,9.6472,0.5178,-0.1505,-0.1279
7.62,0.94,-0.1977,8.8965,0.4606,-0.3143,-0.1637
7.64,0.8388,-0.1671,9.2573,0.413,-0.3451,-0.1155
7.66,0.5862,0.0291,9.4526,0.2378,-0.2135,-0.1092
7.68,0.1796,0.0109,9.3388,0.0869,-0.0931,-0.0577
7.7,0.3139,0.0735,9.4796,-0.0058,0.0903,-0.0232
7.72,0.0188,-0.0486,9.7434,-0.1671,0.1196,-0.0198
7.74,0.1396,0.4659,9.3989,-0.1348,0.1162,0.0091
7.76,0.1996,-0.175,9.6162,-0.1404,0.092,-0.0016
7.78,0.2882,-0.1582,9.741,-0.1129,0.0287,0.0277
7.8,0.3398,0.2503,10.2032,-0.0237,-0.0465,0.0297
7.82,-0.0872,-0.023,10.1181,0.0051,-0.0361,0.0059
7.84,0.4594,0.112,10.1191,0.0281,-0.0406,-0.0055
7.86,0.4638,-0.1057,9.8926,0.0053,-0.0364,0.045
7.88,0.5058,-0.024,9.8854,-0.007,-0.0058,-0.0087
7.9,0.0821,0.171,9.8421,0.0124,-0.0413,-0.0052
7.92,0.6815,-0.1526,9.9553,0.0184,0.0035,0.041
7.94,0.7162,0.006,10.1963,0.0553,0.0002,-0.0089
7.96,0.1282,-0.0648,9.8437,0.0364,-0.072,0.0316
7.98,0.7257,-0.2316,10.0717,0.1217,0.0036,0.0384
8.0,0.8828,0.0807,9.73,0.0937,0.0033,-0.0047
8.02,0.7312,-0.3598,9.4793,0.1889,0.1251,0.0284
8.04,0.3475,-0.1312,9.4608,0.1477,0.1353,-0.0065
8.06,0.0489,-0.4923,9.3313,0.0928,0.0995,-0.0431
8.08,0.2377,-0.1941,9.3842,-0.0167,0.0177,-0.0689
8.1,0.2441,-0.0623,9.1442,-0.0535,-0.188,-0.0678
8.12,0.0798,-0.0904,9.094,-0.2676,-0.2647,-0.0912
8.14,-0.4725,-0.2322,9.0847,-0.4395,-0.3976,-0.1648
8.16,-0.7512,0.0282,9.1765,-0.5146,-0.2864,-0.1352
8.18,-1.1511,-0.4955,9.9228,-0.536,-0.0597,-0.1767
8.2,-0.7655,0.0696,11.161,-0.3887,0.2515,-0.0645
8.22,-0.045,0.3506,12.99,-0.148,0.4234,-0.0207
8.24,0.6153,0.2133,12.5001,0.0738,0.4616,0.0541
8.26,0.989,0.3624,11.8177,0.3689,0.2722,0.1039
8.28,1.4675,0.2833,10.1043,0.4727,0.0311,0.1071
8.3,1.1125,-0.3197,9.328,0.5251,-0.2333,0.1301
8.32,0.6668,-0.0019,8.6681,0.5201,-0.4028,0.1504
8.34,0.5447,-0.1215,8.7729,0.3396,-0.3272,0.0846
8.36,0.2266,-0.2894,8.7343,0.1589,-0.1889,0.0869
8.38,0.0784,-0.0776,9.1799,0.0481,-0.0235,0.0768
8.4,0.233,-0.4937,8.9671,-0.1011,0.0436,-0.0169
8.42,0.1236,-0.1223,9.2269,-0.1001,0.1184,-0.009
8.44,-0.1119,0.0196,9.363,-0.1197,0.1374,-0.016
8.46,0.1434,-0.2638,9.4643,-0.1291,0.0118,-0.033
8.48,0.0682,-0.4006,9.4618,-0.0848,-0.0213,-0.0591
8.5,0.0516,-0.0839,9.9451,-0.0398,-0.0114,-0.0304
8.52,0.4418,-0.1716,10.1828,0.0445,-0.0399,-0.0206
8.54,0.3982,-0.3655,9.593,0.0026,-0.0614,-0.0238
8.56,0.1347,-0.0808,9.778,0.0238,-0.0676,-0.0081
8.58,0.4289,-0.1624,9.8643,0.0342,-0.0234,0.0306
8.6,0.0233,-0.2879,9.6219,0.0284,-0.0384,-0.0183
8.62,0.0638,-0.164,9.6443,-0.0498,0.0059,0.0201
8.64,0.0825,-0.4135,9.5723,-0.049,-0.0414,-0.0222
8.66,0.0618,-0.7635,9.3866,0.0009,-0.0394,-0.0085
8.68,0.1133,-0.1265,9.4465,0.0211,0.0037,-0.0283
8.7,0.1394,-0.3638,9.8089,-0.01,-0.0033,-0.018
8.72,0.1267,-0.5279,10.0375,-0.0043,-0.016,-0.0393
8.74,0.0008,-0.2326,9.6429,-0.0003,-0.0189,0.0124
8.76,0.0766,-0.2383,9.6156,0.0567,-0.0408,-0.0213
8.78,0.4585,-0.1965,9.7572,0.111,0.0356,-0.0151
8.8,0.7628,-0.2675,9.4639,0.1188,0.1251,-0.0552
8.82,0.2402,-0.136,9.2022,0.1717,0.1686,0.0035
8.84,0.4138,-0.1956,9.0806,0.1287,0.1324,0.0037
8.86,-0.2287,-0.0492,9.1906,0.0882,0.0735,0.0372
8.88,-0.1103,-0.0012,8.8387,-0.0833,-0.0459,0.055
8.9,-0.0356,-0.3396,8.7455,-0.2051,-0.2427,0.0592
8.92,-0.2946,-0.0521,8.8888,-0.393,-0.3774,0.1324
8.94,-0.9328,-0.3083,8.8523,-0.517,-0.3885,0.1437
8.96,-1.072,-0.5245,9.0204,-0.4847,-0.2178,0.1342
8.98,-1.3593,-0.5369,10.0102,-0.4618,0.053,0.1289
9.0,-0.6698,-0.5477,11.7037,-0.3132,0.3241,0.0767
9.02,-0.3435,-0.3612,12.5557,-0.1065,0.4481,-0.0218
9.04,0.9068,-0.5476,12.4305,0.2275,0.4302,-0.0258
9.06,0.8672,-0.7691,10.6486,0.4071,0.1689,-0.1488
9.08,1.5765,-0.4765,9.5368,0.5296,-0.0897,-0.1339
9.1,0.856,-0.4832,8.8352,0.556,-0.2961,-0.1368
9.12,0.8831,-0.2302,9.0117,0.4495,-0.3548,-0.1522
9.14,0.0577,-0.023,8.9233,0.2827,-0.3097,-0.0921
9.16,0.1969,0.2506,8.8724,0.1569,-0.1224,-0.1113
9.18,0.2225,-0.1285,8.6583,-0.0468,-0.0159,-0.0585
9.2,0.1932,-0.1178,8.9975,-0.0893,0.0808,0.0013
9.22,0.1941,-0.1161,9.1508,-0.152,0.0992,-0.0146
9.24,0.1392,-0.1842,9.5865,-0.1215,0.0854,0.0117
9.26,0.0225,-0.3201,9.4144,-0.1078,-0.0042,0.004
9.28,0.0318,-0.1431,9.6019,-0.0488,-0.0,0.0244
9.3,0.3479,-0.0944,10.0116,-0.0026,-0.0161,0.0424
9.32,0.2096,-0.0986,9.7379,0.0172,-0.0696,-0.0309
9.34,0.5325,0.0223,10.1834,0.0341,0.0222,0.0182
9.36,0.0758,-0.1823,9.5044,0.0001,-0.0696,0.0046
9.38,0.1056,-0.2897,9.8515,0.065,-0.0398,-0.0192
9.4,0.2791,-0.4522,9.6885,0.0139,0.0295,0.0237
9.42,0.1748,-0.3844,9.8273,0.0457,-0.0315,0.0301
9.44,0.3149,-0.3777,9.6357,0.0145,-0.0052,-0.0261
9.46,0.0445,-0.2572,9.6358,-0.0546,-0.0167,-0.0091
9.48,0.4772,0.0657,9.8184,-0.0375,-0.0059,-0.0212
9.5,0.2422,-0.2045,9.8447,-0.0194,0.0133,0.0332
9.52,0.3623,-0.1919,9.7927,0.0282,0.0249,-0.0255
9.54,-0.0876,-0.1025,9.721,0.0111,-0.0334,-0.0084
9.56,0.4674,-0.2225,10.057,0.057,0.0028,0.0192
9.58,0.3616,-0.0902,9.8807,0.0161,-0.0064,-0.0121
9.6,0.4458,-0.1495,9.6246,0.0831,-0.0251,-0.0084
9.62,0.5422,0.0078,9.6895,0.1465,0.0462,-0.0099
9.64,0.1981,-0.1817,9.2853,0.1518,0.1477,0.0465
9.66,0.536,-0.3458,9.2346,0.1023,0.1071,0.01
9.68,0.6232,-0.3106,9.2534,0.0847,0.0767,-0.0129
9.7,0.3908,-0.2824,9.0037,0.0006,0.061,-0.0845
9.72,0.5975,-0.1991,9.076,-0.0946,-0.1776,-0.0594
9.74,0.4044,0.0562,9.2169,-0.2718,-0.3019,-0.1019
9.76,-0.144,0.049,9.2105,-0.4637,-0.336,-0.1215
9.78,-0.8034,-0.1474,9.2136,-0.5357,-0.2981,-0.1402
9.8,-0.7459,0.1066,9.9072,-0.5158,-0.0232,-0.1447
9.82,-0.5597,0.1879,11.2528,-0.3209,0.2708,-0.0705
9.84,0.1757,0.5901,12.8691,-0.1188,0.4425,-0.0676
9.86,0.6936,0.2603,12.844,0.1162,0.4643,0.0611
9.88,1.4693,0.3502,12.0811,0.3577,0.3412,0.0796
9.9,1.5851,0.0846,10.4119,0.4744,0.0509,0.1104
9.92,1.3706,0.2354,9.6248,0.5241,-0.1924,0.1377
9.94,0.674,-0.1701,8.8508,0.4305,-0.3937,0.13
9.96,0.8713,0.2843,9.1667,0.3934,-0.3221,0.1364
9.98,0.7876,0.2377,9.4139,0.1678,-0.2264,0.0889
10.0,0.3592,0.4304,9.1355,0.0032,-0.0082,0.0607
10.02,0.3302,-0.1907,9.2193,-0.075,0.0908,0.0073
10.04,-0.075,-0.2127,9.5039,-0.1309,0.1609,-0.0019
10.06,0.2685,0.0118,9.7643,-0.1038,0.1124,0.0081
10.08,0.015,-0.0627,9.809,-0.0784,0.1303,-0.0346
10.1,0.4717,0.0634,9.8286,-0.0434,0.082,-0.0047
10.12,0.0756,-0.1487,9.8977,-0.0508,-0.0703,-0.02
10.14,0.125,-0.3098,10.3357,-0.0017,-0.0158,-0.0277
10.16,0.7841,-0.2259,10.4067,-0.0051,-0.0285,0.0172
10.18,0.3833,0.013,9.9009,0.0101,-0.0931,-0.0474
10.2,0.4861,-0.1112,9.8739,0.0212,-0.0888,-0.0273
10.22,0.3696,0.1854,10.0396,0.0622,-0.0245,-0.0287
10.24,0.6304,-0.1458,9.7007,0.0933,0.0391,-0.0209
10.26,0.5116,-0.1463,9.6479,0.117,0.0313,0.0117
10.28,0.4744,0.2015,9.5436,0.1581,0.1364,-0.0074
10.3,0.7658,0.1343,9.3065,0.1528,0.1236,0.0118
10.32,0.3001,0.0518,9.288,0.0765,0.0038,0.0363
10.34,-0.0007,-0.0117,8.9543,-0.069,-0.0976,0.0366
10.36,-0.0168,0.0135,8.9246,-0.1836,-0.262,0.0944
10.38,0.0664,-0.0383,9.3844,-0.366,-0.3708,0.1665
10.4,-0.552,-0.1779,8.8116,-0.5349,-0.3916,0.1304
10.42,-0.962,-0.1675,9.296,-0.5822,-0.2023,0.171
10.44,-0.3452,-0.0047,10.645,-0.456,0.0915,0.1358
10.46,-0.689,-0.104,12.2557,-0.2946,0.3773,0.0504
10.48,-0.0663,-0.6609,13.2728,-0.072,0.5341,0.0511
10.5,0.9449,-0.7427,12.4183,0.1776,0.4267,-0.019
10.52,1.9223,-0.1893,11.3794,0.4905,0.218,-0.0468
10.54,1.4941,-0.1866,10.1582,0.6024,-0.0653,-0.1358
10.56,1.1154,-0.2009,9.0217,0.5368,-0.3399,-0.1444
10.58,0.8713,0.0913,9.0189,0.4555,-0.4062,-0.1235
10.6,0.8058,0.1009,9.0534,0.3049,-0.3331,-0.1147
10.62,0.4056,0.1744,9.0762,0.0791,-0.1975,-0.0503
10.64,0.271,0.251,9.0659,-0.0331,0.0513,-0.0436
10.66,0.6739,0.1553,9.0906,-0.0654,0.1237,-0.0018
10.68,0.3177,-0.0939,9.3526,-0.1544,0.1205,-0.0157
10.7,0.1988,0.1855,9.8249,-0.0686,0.1275,0.0184
10.72,-0.0029,-0.1962,9.6955,-0.1062,0.0493,0.0236
10.74,-0.1071,-0.0593,9.7939,-0.0827,-0.0028,-0.0089
10.76,-0.1434,-0.1151,9.7221,-0.022,-0.0622,-0.0448
10.78,0.3922,-0.0157,10.0805,0.022,-0.023,0.0554
10.8,0.3312,-0.2688,9.8203,0.05,-0.0117,0.0198
10.82,0.1189,0.0005,9.756,0.026,-0.0098,-0.0011
10.84,0.3243,-0.5515,9.6139,-0.0003,-0.0574,0.0338
10.86,0.0716,-0.2936,9.4787,-0.0466,-0.0312,-0.048
10.88,0.3526,-0.0036,9.8021,0.0178,-0.0368,-0.0087
10.9,0.403,0.0818,10.1111,0.0366,0.0212,0.0414
10.92,-0.2321,-0.5483,9.3197,-0.0213,-0.0414,-0.0308
10.94,0.5021,-0.451,9.882,0.0284,-0.0255,0.0324
10.96,0.1939,-0.1421,10.0504,0.0272,0.0084,0.0588
10.98,0.276,-0.2183,9.8087,0.0855,-0.0516,0.0007
11.0,0.6413,-0.1859,9.6,0.0947,-0.0262,0.0398
11.02,0.3324,-0.2822,9.5741,0.0748,0.0471,0.0518
11.04,0.2267,-0.3419,8.9974,0.1407,0.0543,0.0056
11.06,0.4839,-0.5895,9.1821,0.1827,0.1334,-0.0189
11.08,0.1472,-0.4701,9.1726,0.1529,0.1623,-0.0296
11.1,0.3155,-0.2168,8.6977,0.0348,0.0163,-0.0603
11.12,0.0758,-0.4235,8.6715,-0.1089,-0.2223,-0.1215
11.14,0.072,-0.1868,8.7424,-0.3112,-0.3516,-0.1252
11.16,-0.2697,0.0863,9.0502,-0.4602,-0.3725,-0.1634
11.18,-0.6256,-0.1609,8.8639,-0.6149,-0.338,-0.1201
11.2,-1.2848,0.1902,9.8479,-0.5704,-0.0638,-0.1414
11.22,-0.9388,-0.0576,11.0458,-0.5044,0.2248,-0.1388
11.24,-0.4277,0.1106,12.7546,-0.2469,0.5058,-0.0457
11.26,0.2626,0.225,12.98,0.1086,0.5664,-0.0007
11.28,1.8704,0.6135,12.2859,0.4042,0.4053,0.1233
11.3,1.4944,0.328,10.3317,0.5722,0.1021,0.1688
11.32,1.3445,-0.1396,9.1162,0.625,-0.2165,0.1599
11.34,1.0706,-0.0249,8.9728,0.5946,-0.3681,0.1849
11.36,0.4722,-0.0332,8.6099,0.4274,-0.4224,0.1369
11.38,0.11,-0.2902,8.6578,0.2249,-0.2615,0.1176
11.4,0.1443,0.0223,9.1939,0.0492,-0.0318,0.0971
11.42,-0.0965,-0.455,8.917,-0.0732,0.0547,0.0006
11.44,0.2318,-0.4479,9.0447,-0.1533,0.1601,-0.0137
11.46,0.2753,-0.0426,9.2947,-0.1749,0.1531,0.0067
11.48,0.1347,-0.159,9.5273,-0.145,0.0824,0.0201
11.5,-0.1843,-0.4812,9.2361,-0.0728,0.0191,-0.0632
11.52,0.2079,0.0067,10.304,0.0006,-0.0024,0.0112
11.54,-0.2287,-0.1346,9.7992,-0.0636,-0.06,-0.0063
11.56,0.1853,-0.0721,9.6809,-0.002,-0.0533,0.0012
11.58,0.269,-0.0037,9.8423,0.0277,-0.0139,-0.0165
11.6,0.7254,-0.26,9.879,0.0665,-0.006,0.0245
11.62,0.7159,-0.1099,9.8643,0.0135,0.0132,-0.0265
11.64,0.2317,0.1607,9.9288,0.0256,-0.014,0.0125
11.66,0.2124,0.0124,9.9847,0.0248,0.0117,-0.0084
11.68,0.1153,-0.1934,9.6685,0.0205,-0.0162,0.0248
11.7,-0.0601,-0.3607,9.8906,0.0184,-0.026,-0.0111
11.72,0.4334,0.0142,9.9854,0.0516,-0.0312,-0.0185
11.74,0.6446,-0.0994,9.8777,0.0966,-0.0312,-0.0136
11.76,0.2837,-0.076,9.9675,0.1218,-0.005,-0.0245
11.78,0.7692,0.2745,10.0323,0.1451,0.0808,-0.0223
11.8,0.6967,0.0462,9.706,0.2028,0.1318,-0.0059
11.82,0.5071,0.1075,9.2133,0.1592,0.1614,0.0451
11.84,0.2802,-0.0714,8.888,0.0966,0.1004,0.05
11.86,0.6254,-0.0286,9.4229,-0.0089,-0.0225,0.0723
11.88,0.133,-0.1143,8.7178,-0.2282,-0.2542,0.0646
11.9,-0.0497,-0.0925,8.8698,-0.3864,-0.4203,0.1358
11.92,-0.5919,-0.0573,8.778,-0.526,-0.4381,0.1924
11.94,-0.7972,-0.2577,9.3996,-0.5798,-0.291,0.131
11.96,-0.7251,-0.2271,10.2537,-0.5711,0.024,0.1595
11.98,-0.6787,-0.3562,12.0182,-0.3497,0.3316,0.0721
12.0,-0.1111,-0.3879,12.8805,-0.0726,0.5064,0.0693
12.02,1.217,-0.3699,13.3275,0.1626,0.5207,-0.0296
12.04,1.3954,-0.7474,11.6221,0.4386,0.2771,-0.0692
12.06,1.6801,-0.2529,10.1387,0.6041,-0.0152,-0.1416
12.08,2.0441,0.0967,9.3763,0.6092,-0.2482,-0.1351
12.1,0.7797,-0.556,8.71,0.4809,-0.4692,-0.1529
12.12,0.8473,0.1855,9.2471,0.3887,-0.3759,-0.0953
12.14,0.3786,0.2813,9.0211,0.1596,-0.184,-0.1124
12.16,0.287,-0.0633,9.107,-0.0087,-0.0078,-0.0414
12.18,0.1265,-0.0106,9.0802,-0.1104,0.1437,-0.0312
12.2,0.363,0.515,9.4182,-0.1139,0.1329,-0.0181
12.22,0.2768,0.6734,9.9833,-0.0955,0.1513,0.0101
12.24,0.1519,0.0374,9.8192,-0.111,0.0526,-0.0129
12.26,0.2839,-0.216,9.8407,-0.0679,0.0263,0.0398
12.28,0.459,-0.0313,10.1351,-0.0374,-0.0437,0.0064
12.3,0.4238,0.2172,9.9821,-0.0427,-0.0061,0.0395
12.32,0.2405,-0.1307,9.8207,-0.0366,-0.0241,-0.065
12.34,0.4839,0.1802,10.1681,-0.007,-0.0171,0.0264
12.36,0.4248,0.2459,10.2361,-0.0125,0.0428,0.0383
12.38,0.5158,0.0428,10.0985,0.0218,-0.0178,-0.0229
12.4,0.4734,-0.3638,9.7494,-0.0119,-0.0342,-0.0254
12.42,0.3036,-0.0725,9.9828,0.0031,-0.0526,-0.0221
12.44,0.7625,0.1351,10.2673,0.0448,-0.0307,0.0515
12.46,0.1924,-0.122,9.8722,0.0581,-0.0081,0.0111
12.48,0.4155,-0.4833,9.5313,0.0687,0.0141,0.0034
12.5,0.6091,0.2119,9.8154,0.1558,0.1264,0.0396
12.52,0.7669,-0.113,9.4683,0.1692,0.1115,-0.0119
12.54,0.5304,-0.0231,9.4261,0.1377,0.0983,0.0008
12.56,0.5369,-0.0365,9.1814,0.0154,0.0579,-0.0562
12.58,0.4823,0.2319,9.5474,-0.0294,-0.0556,-0.0408
12.6,-0.3406,-0.339,8.8609,-0.2731,-0.3302,-0.1316
12.62,-0.0624,-0.3072,8.8827,-0.4358,-0.4247,-0.1405
12.64,0.0019,0.1012,9.4074,-0.5016,-0.3147,-0.128
12.66,-0.6331,0.1834,9.7592,-0.5496,-0.1048,-0.1119
12.68,-0.7179,0.3857,11.3691,-0.4325,0.1658,-0.1283
12.7,-0.4596,0.1073,12.2601,-0.2471,0.4198,-0.0637
12.72,0.3728,0.5925,13.1752,0.0699,0.5432,0.0155
12.74,0.9905,0.3107,12.3128,0.2653,0.4199,0.0358
12.76,1.8683,0.0591,11.2589,0.5399,0.1708,0.1436
12.78,1.5853,-0.1784,9.6705,0.5771,-0.1662,0.1218
12.8,1.2676,0.1886,9.4141,0.5773,-0.3457,0.1603
12.82,0.8797,-0.2575,8.881,0.4011,-0.4067,0.123
12.84,0.3239,-0.5165,8.9511,0.2242,-0.3252,0.1159
12.86,0.5895,-0.3716,8.9458,0.0532,-0.0984,0.03
12.88,0.3436,-0.4109,9.5135,-0.0493,0.0742,0.0537
12.9,0.1702,0.1668,9.3466,-0.1085,0.1486,0.0118
12.92,0.3269,-0.2825,9.5573,-0.1631,0.1053,-0.0036
12.94,0.2117,-0.4316,9.5195,-0.1294,0.0922,-0.0258
12.96,0.2742,-0.0519,9.9546,-0.0676,0.0698,0.0065
12.98,0.7375,0.2151,10.1232,0.0095,-0.0333,0.0299
13.0,0.34,-0.2988,9.9001,-0.0207,-0.0338,-0.0162
13.02,0.4198,-0.0023,10.1243,0.0294,-0.0545,0.0181
13.04,0.2957,-0.2286,9.6435,0.0073,-0.0242,-0.0066
13.06,0.2188,0.0305,9.6714,0.0231,0.03,-0.0183
13.08,0.3639,-0.0082,9.6663,0.0169,-0.0094,0.0077
13.1,0.2786,0.231,10.0561,0.0432,0.0213,0.0159
13.12,0.4383,-0.1304,9.6964,-0.0437,-0.0435,-0.043
13.14,-0.0288,-0.3478,9.8977,-0.0122,-0.0229,-0.0033
13.16,0.4079,-0.1326,9.8706,0.0145,-0.0319,0.026
13.18,0.6172,0.0561,9.8159,0.0231,-0.0338,-0.0274
13.2,0.3648,-0.1565,9.6864,0.085,-0.0464,-0.0567
13.22,0.174,-0.3979,9.5631,0.0749,0.0093,-0.0425
13.24,0.031,-0.5012,9.4017,0.1052,0.1053,-0.0245
13.26,0.3799,0.096,9.467,0.0777,0.0769,-0.0402
13.28,-0.1977,-0.0826,9.3384,0.0783,0.0576,0.0045
13.3,0.4877,-0.2437,9.191,0.0528,-0.041,0.0337
13.32,0.4093,-0.328,8.988,-0.1182,-0.1381,0.0555
13.34,-0.2668,-0.1759,8.9082,-0.2516,-0.293,0.0914
13.36,0.2575,-0.1244,9.2498,-0.3578,-0.31,0.1188
13.38,-0.396,-0.4055,8.9166,-0.4814,-0.2768,0.1484
13.4,-0.6485,-0.3688,9.4181,-0.4691,-0.081,0.0951
13.42,-1.0218,-0.3831,10.8361,-0.3896,0.1917,0.1008
13.44,-0.1196,-0.4107,11.9665,-0.1383,0.3205,0.0372
13.46,0.5756,-0.0485,12.5086,0.0379,0.4121,-0.0272
13.48,0.321,-0.3843,11.3587,0.2878,0.3485,-0.0604
13.5,1.2413,-0.6516,10.5744,0.4227,0.0661,-0.0582
13.52,1.1968,-0.3679,9.3486,0.4765,-0.1651,-0.1058
13.54,0.7413,-0.3523,8.9078,0.4064,-0.3198,-0.1208
13.56,0.6529,-0.0545,8.9938,0.3318,-0.3225,-0.099
13.58,0.1554,-0.1263,8.9385,0.1756,-0.1742,-0.1496
13.6,0.2344,-0.4725,9.1083,0.0251,-0.0704,-0.0793
13.62,-0.3395,-0.3475,8.8556,-0.1003,0.0178,-0.0681
13.64,0.1042,-0.1508,9.4665,-0.0997,0.1078,0.0041
13.66,0.2903,-0.0798,9.516,-0.0709,0.1182,-0.0083
13.68,0.1521,-0.4419,9.7346,-0.1145,0.0611,0.0444
13.7,-0.1,-0.0685,9.6447,-0.0887,-0.0208,-0.0129
13.72,0.2771,-0.1131,9.816,0.0066,-0.0111,0.0619
13.74,0.4478,-0.2037,10.008,-0.0082,-0.0335,0.0703
13.76,0.3422,-0.3359,9.9444,-0.0234,-0.0553,0.0112
13.78,0.4644,-0.3119,9.735,-0.0013,-0.01,0.0109
13.8,0.3015,-0.2698,9.8254,0.0522,-0.0509,0.0034
13.82,0.2523,-0.2313,9.8023,0.0452,0.0386,0.0062
13.84,0.2672,-0.3966,9.7126,0.0617,-0.0083,0.0294
13.86,0.4713,0.1435,9.8733,0.0332,0.0194,0.0473
13.88,-0.2031,-0.4962,9.3443,-0.0306,-0.0357,-0.0231
13.9,-0.1594,-0.1929,9.5389,-0.0436,0.0019,-0.0019
13.92,0.142,0.1359,9.7357,0.0026,-0.0425,0.0153
13.94,-0.1206,-0.4053,9.7329,-0.0418,-0.0306,-0.0548
13.96,0.5619,0.0418,10.3137,0.0806,-0.0379,0.0417
13.98,0.2172,-0.0808,9.6071,0.0556,-0.0406,0.0139
14.0,0.4294,-0.3332,9.516,0.0842,0.0295,0.0537
14.02,0.2608,-0.1846,9.1168,0.1273,0.1107,-0.0345
14.04,0.3784,-0.041,9.54,0.168,0.1535,0.0529
14.06,0.1106,-0.5378,9.3074,0.1284,0.1528,0.0025
14.08,0.2958,0.084,9.1023,0.0808,0.0328,-0.0275
14.1,0.4277,-0.3061,9.1542,-0.0968,-0.1516,-0.052
14.12,0.1518,0.0079,9.2781,-0.2885,-0.3057,-0.1091
14.14,-0.1165,-0.1932,8.8247,-0.4097,-0.402,-0.135
14.16,-0.425,0.1912,9.2406,-0.4908,-0.3156,-0.174
14.18,-0.5733,0.1272,9.8679,-0.5102,-0.1138,-0.1233
14.2,-0.4417,0.7023,11.237,-0.3853,0.2008,-0.0692
14.22,-0.4172,0.1807,11.9972,-0.2022,0.3991,-0.0666
14.24,0.5818,0.2686,12.8149,0.0464,0.4667,-0.0078
14.26,1.0219,0.1209,12.0503,0.3131,0.4079,0.0836
14.28,1.4624,0.0882,10.9605,0.498,0.079,0.0878
14.3,1.5088,0.1972,9.7233,0.6072,-0.1487,0.1649
14.32,1.0904,-0.2404,9.1978,0.563,-0.38,0.1646
14.34,0.7818,0.1012,9.0092,0.3869,-0.3652,0.1306
14.36,0.426,-0.0378,9.2549,0.2738,-0.2139,0.1223
14.38,0.382,0.0941,9.2958,0.0722,-0.071,0.0823
14.4,0.2203,-0.4645,9.0134,-0.1269,0.0636,0.0413
14.42,0.1814,-0.1396,9.6306,-0.1212,0.1163,0.0271
14.44,0.4438,-0.1906,9.6739,-0.1216,0.1132,0.028
14.46,0.1066,-0.0069,9.4361,-0.1471,0.059,-0.0543
14.48,0.1607,-0.1594,9.6728,-0.0681,-0.0236,-0.0718
14.5,0.2241,-0.1461,9.9466,-0.0755,-0.0125,-0.0442
14.52,0.3031,0.1066,9.9971,0.0285,-0.0278,0.0075
14.54,0.5173,-0.0547,10.0146,0.0408,-0.0401,-0.0479
14.56,0.6389,0.1409,10.3575,0.0044,-0.0233,0.0123
14.58,0.5815,-0.0117,9.8666,-0.0053,-0.0268,-0.0172
14.6,0.6244,-0.236,10.0499,-0.0118,-0.048,-0.013
14.62,0.5355,0.1246,10.218,0.0032,-0.0395,0.0266
14.64,0.6396,-0.163,9.8971,0.0785,-0.031,-0.0283
14.66,0.4854,0.0741,10.1302,0.059,-0.07,-0.0348
14.68,0.7705,0.0294,9.7706,0.114,0.0371,0.0023
14.7,0.6098,0.1298,9.7114,0.1694,0.0872,-0.0179
14.72,0.8023,-0.3008,9.4299,0.1431,0.175,0.0014
14.74,0.6566,0.2175,9.5265,0.1118,0.0969,0.022
14.76,0.396,0.2432,9.3395,-0.0446,-0.0007,0.06
14.78,0.2397,0.4068,9.0453,-0.1835,-0.2515,0.0836
14.8,-0.0245,-0.036,9.0222,-0.3584,-0.3615,0.1436
14.82,-0.0762,0.0604,9.0883,-0.4722,-0.3267,0.1533
14.84,-0.2249,-0.4613,9.3963,-0.522,-0.2663,0.1266
14.86,-0.2286,-0.1162,10.7794,-0.5039,0.054,0.1404
14.88,-0.3906,-0.332,11.4453,-0.3827,0.309,0.0554
14.9,0.4502,-0.2026,12.897,-0.0965,0.4902,0.0237
14.92,0.827,-0.5351,12.5533,0.1915,0.4529,-0.033
14.94,1.5316,-0.0833,11.7875,0.4104,0.2469,-0.1016
14.96,1.8208,-0.17,10.2219,0.6109,-0.039,-0.1047
14.98,1.2972,0.0109,9.3853,0.547,-0.2948,-0.1255
15.0,0.7514,0.1052,9.3323,0.477,-0.3572,-0.1825
15.02,0.3405,-0.0949,8.9449,0.3118,-0.3026,-0.1588
15.04,0.5416,0.2593,9.1326,0.1354,-0.1737,-0.0338
15.06,0.5457,-0.0746,9.2155,-0.0666,-0.0026,-0.0295
15.08,0.3177,0.0732,9.33,-0.1395,0.1119,-0.0315
15.1,0.4946,-0.1074,9.6012,-0.1477,0.105,0.0065
15.12,-0.1372,-0.0698,9.7399,-0.1355,0.1199,0.0254
15.14,0.1698,-0.3716,9.8143,-0.1385,0.0684,0.0039
15.16,0.3838,-0.1105,10.0008,-0.0536,0.0138,0.0338
15.18,0.4968,-0.1243,10.0102,-0.0416,-0.0592,0.0344
15.2,0.4245,0.2151,10.085,-0.0082,-0.0474,-0.0084
15.22,0.5617,-0.0276,10.2926,-0.0056,-0.0442,0.012
15.24,0.4596,-0.0354,10.181,0.01,0.0066,0.0409
15.26,0.5773,0.0008,10.1989,0.0463,-0.0133,0.0244
15.28,0.9421,-0.4128,10.0151,0.0753,0.0531,0.0236
15.3,0.407,-0.0584,9.6103,0.0261,-0.0155,-0.0004
15.32,0.5577,0.0182,9.3415,0.1012,0.0529,-0.0554
15.34,0.5925,-0.0152,9.7113,0.1578,0.0902,0.0297
15.36,0.3197,-0.0679,9.3469,0.1445,0.0814,0.0134
15.38,0.4545,-0.0921,9.1598,0.0564,0.0869,-0.0191
15.4,0.3929,-0.3652,8.8452,-0.0777,-0.0388,-0.0599
15.42,0.5301,-0.1214,9.36,-0.1426,-0.214,-0.0618
15.44,0.026,-0.2423,9.0523,-0.3653,-0.3439,-0.0947
15.46,-0.3842,-0.0416,9.0837,-0.4302,-0.3261,-0.0991
15.48,-0.2176,-0.1434,9.4728,-0.4933,-0.1693,-0.1186
15.5,-0.5322,0.2799,10.2336,-0.454,0.0546,-0.08
15.52,-0.89,0.0766,11.0725,-0.3445,0.2698,-0.0733
15.54,0.3876,0.055,12.6415,-0.1106,0.4469,-0.0605
15.56,0.6836,-0.0995,12.3271,0.1503,0.4035,0.0525
15.58,1.673,-0.0129,11.1608,0.3576,0.2424,0.084
15.6,1.4107,-0.0544,9.9676,0.5037,-0.0539,0.1198
15.62,1.0199,0.0546,9.2041,0.4975,-0.2928,0.1318
15.64,0.6125,-0.1945,8.9484,0.4154,-0.3653,0.1401
15.66,0.456,-0.094,9.322,0.2978,-0.291,0.0847
15.68,0.347,-0.2423,8.8853,0.0887,-0.1572,0.078
15.7,0.6043,-0.1251,9.0155,0.0033,0.0129,-0.0152
15.72,-0.0562,-0.0654,9.2395,-0.0916,0.0859,0.0102
15.74,0.0557,-0.438,9.6577,-0.0998,0.1069,0.0443
15.76,0.0007,-0.3701,9.6718,-0.1271,0.1094,0.0102
15.78,0.1833,-0.2378,9.8159,-0.1224,0.0365,0.0061
15.8,0.0103,-0.5468,9.8042,-0.063,-0.0361,-0.0108
15.82,0.1787,-0.5357,9.6952,-0.0143,-0.0801,-0.0455
15.84,0.2227,-0.4862,9.9472,-0.0167,-0.0335,-0.0293
15.86,0.3749,-0.3279,10.121,0.023,-0.0101,-0.001
15.88,0.3259,-0.5959,9.5091,-0.0409,-0.0517,-0.0524
15.9,0.4991,-0.1665,9.7763,0.0258,0.0237,0.0025
15.92,0.0548,-0.1742,9.6963,0.0386,0.027,0.0257
15.94,0.1114,-0.2405,9.8548,-0.0046,0.0019,0.0102
15.96,0.3575,-0.1373,9.8168,0.0569,-0.006,0.0041
15.98,0.2773,-0.231,9.8336,-0.0135,-0.0337,-0.0419
16.0,0.4046,-0.402,9.7013,0.0163,-0.0003,-0.0133
16.02,0.3193,-0.169,9.4849,0.0609,0.0058,-0.0439
16.04,0.3195,-0.2876,9.5371,0.109,0.0313,-0.0297
16.06,0.2721,-0.2726,9.5591,0.1163,0.1143,-0.0316
16.08,0.3513,-0.2414,9.7788,0.1062,0.151,0.0465
16.1,0.4177,0.1539,9.4057,0.11,0.0626,0.0093
16.12,-0.0556,0.0643,9.5052,0.0184,-0.0022,0.0377
16.14,-0.3502,-0.0627,9.004,-0.1498,-0.1952,0.0311
16.16,0.2927,-0.1931,8.8927,-0.2449,-0.3679,0.0432
16.18,-0.2682,-0.1758,8.8005,-0.3868,-0.3526,0.0948
16.2,-0.6877,-0.5556,8.9703,-0.4786,-0.2669,0.1147
16.22,-0.5622,-0.6196,9.9583,-0.4344,-0.0141,0.0947
16.24,-0.164,-0.0912,11.4545,-0.2766,0.2256,0.0977
16.26,-0.5428,-0.4768,12.1752,-0.1736,0.3974,0.0626
16.28,0.2859,-0.0316,12.1371,0.1631,0.3982,-0.0421
16.3,1.0641,-0.7895,11.2214,0.2867,0.2821,-0.0369
16.32,1.6991,-0.4388,10.2033,0.4326,0.084,-0.1093
16.34,1.3093,-0.1077,9.4256,0.4943,-0.1731,-0.1068
16.36,0.9334,-0.5393,9.0873,0.4222,-0.3099,-0.1374
16.38,0.7367,0.0387,9.0301,0.3196,-0.2488,-0.1108
16.4,0.2707,-0.203,8.7866,0.145,-0.1829,-0.076
16.42,0.2135,-0.0633,9.0597,0.0488,-0.0392,-0.0184
16.44,0.4323,-0.1851,9.1525,-0.0802,0.0831,-0.0279
16.46,0.2074,-0.1047,9.4806,-0.1244,0.1293,-0.0213
16.48,0.4495,0.1043,9.7285,-0.137,0.1026,-0.0182
16.5,-0.2163,-0.1532,9.6728,-0.0775,0.052,0.0138
16.52,0.1031,-0.2202,9.8726,-0.0626,0.0016,0.0155
16.54,0.1962,-0.2403,9.9171,-0.0555,-0.0304,0.0395
16.56,0.336,-0.1511,9.7112,-0.0009,-0.0319,0.0072
16.58,0.2684,-0.1224,9.9126,-0.0283,-0.0063,-0.006
16.6,0.2774,-0.046,10.0593,-0.0127,-0.0362,-0.0222
16.62,0.4177,-0.3849,9.6654,-0.0053,-0.0312,0.0171
16.64,0.301,-0.2244,9.7945,-0.0074,0.0025,0.0557
16.66,0.2454,0.0176,10.0469,0.0082,-0.0465,-0.0116
16.68,0.3527,-0.2325,9.5667,0.0003,-0.063,-0.0278
16.7,0.468,-0.0618,9.9322,0.014,-0.0117,0.0226
16.72,0.5424,-0.2802,9.555,0.1055,0.0281,0.0632
16.74,0.3939,-0.0377,9.538,0.082,0.0609,0.0165
16.76,0.7781,-0.0656,10.0906,0.136,0.1588,-0.0374
16.78,0.4676,-0.5517,9.2831,0.069,0.0713,-0.0206
16.8,0.2974,-0.4479,8.9337,-0.019,0.0046,-0.012
16.82,0.4504,0.1666,9.7586,-0.0761,-0.1149,-0.0894
16.84,-0.0524,-0.5838,8.4586,-0.2748,-0.2783,-0.106
16.86,0.3016,0.3169,9.527,-0.3063,-0.2446,-0.1089
16.88,-0.4488,-0.0289,9.1034,-0.486,-0.2485,-0.0759
16.9,-0.6587,0.3693,10.1337,-0.4894,-0.0598,-0.1563
16.92,-0.2671,0.0473,11.0755,-0.3621,0.1481,-0.0935
16.94,-0.374,-0.1739,11.3768,-0.2199,0.3494,-0.0543
16.96,0.3919,0.2858,11.9783,0.0678,0.392,-0.0235
16.98,1.5121,0.2058,11.9245,0.278,0.3112,0.0864
17.0,1.5078,0.2389,10.807,0.4446,0.0609,0.1115
17.02,0.9019,-0.2333,9.2715,0.4116,-0.1361,0.1385
17.04,0.9076,-0.1261,8.8569,0.4324,-0.3157,0.1263
17.06,0.9194,0.2918,9.3863,0.3292,-0.3317,0.1096
17.08,0.7838,0.1543,9.5201,0.2321,-0.1712,0.0443
17.1,0.7599,0.0702,9.8768,0.0537,-0.0197,0.0735
17.12,0.4242,-0.0502,9.5792,-0.0519,0.0771,0.0223
17.14,0.3246,0.0179,9.7381,-0.1356,0.0996,0.0201
17.16,0.2638,-0.0253,9.8075,-0.1046,0.1159,-0.0202
17.18,-0.4312,-0.568,9.1692,-0.2072,-0.0097,-0.045
17.2,0.402,-0.0825,9.9371,-0.0619,0.0008,-0.0464
17.22,0.5062,0.2637,10.4432,0.0028,-0.0049,-0.0491
17.24,0.5846,-0.1126,10.0679,-0.0053,-0.0487,-0.0343
17.26,0.6389,0.127,10.0651,0.01,-0.008,-0.0051
17.28,0.527,0.1741,9.8241,-0.0064,-0.0452,-0.0243
17.3,0.4495,0.1291,9.9036,0.0196,0.0006,-0.0276
17.32,0.5607,0.1058,9.938,-0.0096,-0.0031,0.0293
17.34,0.628,-0.0291,10.0402,-0.0035,0.0065,-0.017
17.36,0.0237,-0.037,9.8573,0.0151,-0.0015,-0.0087
17.38,0.41,-0.2362,9.5768,-0.0232,-0.0113,-0.035
17.4,0.4813,-0.0763,10.1375,-0.0111,-0.0498,0.0055
17.42,0.2574,-0.1108,9.9859,-0.0165,0.0099,0.0279
17.44,0.3344,-0.2611,10.1526,-0.0198,-0.0286,0.0112
17.46,0.5936,0.1734,10.1022,0.0021,-0.0105,0.0357
17.48,0.4,0.0451,9.7902,0.027,-0.0746,-0.0324
17.5,0.6706,-0.2176,10.0777,0.1171,-0.0091,-0.0194
17.52,0.6755,0.1318,10.0652,0.1006,0.0545,-0.0154
17.54,0.7088,-0.1488,9.5384,0.1125,0.0943,-0.0104
17.56,0.9611,-0.1099,9.1066,0.1159,0.1393,0.0193
17.58,0.4171,-0.0638,9.6479,0.1055,0.1301,0.0333
17.6,0.5125,0.182,9.2241,-0.0,0.0157,0.0701
17.62,0.5164,0.2244,9.3964,-0.0373,-0.0678,0.0831
17.64,0.0414,-0.3192,9.1044,-0.2793,-0.2983,0.0907
17.66,-0.2882,-0.2488,8.8572,-0.4815,-0.3777,0.1323
17.68,-0.3872,-0.0658,9.2819,-0.5742,-0.2981,0.1726
17.7,-0.53,-0.1034,9.8939,-0.5626,-0.142,0.1394
17.72,-0.6248,0.1091,11.1587,-0.4829,0.1903,0.0977
17.74,-0.4846,-0.8285,11.9291,-0.2644,0.4418,0.0402
17.76,0.6174,-0.3381,13.1095,0.044,0.4998,0.0078
17.78,0.7259,-0.4772,11.8739,0.2424,0.3995,-0.0857
17.8,1.7755,-0.3923,10.9551,0.4797,0.1617,-0.1466
17.82,1.4065,-0.0696,9.9805,0.6449,-0.1081,-0.1389
17.84,1.0333,-0.3373,9.1327,0.5347,-0.3342,-0.1904
17.86,0.8503,-0.4484,8.9734,0.4136,-0.3676,-0.1596
17.88,0.3351,-0.299,8.9735,0.2431,-0.2724,-0.1051
17.9,0.4884,-0.0796,9.1489,0.0801,-0.059,-0.0785
17.92,0.2225,0.0312,9.4528,-0.0552,0.0555,-0.0548
17.94,0.5971,-0.0514,9.8073,-0.1351,0.1449,0.0536
17.96,-0.042,0.1349,9.713,-0.1107,0.1121,0.0214
17.98,0.0811,-0.4898,9.6386,-0.1519,0.0839,0.043
18.0,-0.1586,-0.1149,9.5653,-0.1348,0.0525,0.0065
18.02,0.293,-0.3608,9.8939,-0.0295,-0.0096,0.0002
18.04,0.2651,0.0717,10.0656,0.0424,-0.0462,-0.0106
18.06,0.2772,-0.0556,9.7076,0.0052,0.0068,0.0329
18.08,0.301,-0.1198,9.8259,-0.0443,-0.0241,0.026
18.1,0.5151,-0.13,9.6441,-0.0055,-0.0005,-0.0001
18.12,0.289,-0.2024,9.7668,-0.0294,-0.0171,0.022
18.14,0.1719,-0.4049,9.7659,-0.0223,-0.0302,-0.0534
18.16,0.1805,-0.204,9.5936,-0.0038,-0.0096,-0.0349
18.18,0.5103,-0.4344,9.6241,-0.0172,-0.0072,0.0168
18.2,0.1969,-0.3533,9.4044,0.0074,0.0197,-0.0103
18.22,0.1252,-0.3873,9.7388,0.0187,-0.0366,0.0169
18.24,0.2708,-0.1737,9.9095,-0.0534,-0.031,0.0049
18.26,0.499,0.0143,9.7479,0.0229,-0.0424,-0.0254
18.28,0.7609,0.0798,9.8775,0.0493,-0.0279,0.0873
18.3,0.6521,-0.1577,9.6665,0.0578,-0.0201,-0.0127
18.32,0.3708,-0.35,9.4278,0.0943,0.0841,-0.0297
18.34,0.3541,-0.4199,9.5337,0.1622,0.104,0.0117
18.36,0.514,-0.0838,9.4467,0.1713,0.1756,0.0399
18.38,0.3979,-0.3888,9.517,0.098,0.1192,-0.0528
18.4,0.4997,-0.0114,9.5316,0.0428,-0.0242,0.0116
18.42,0.2678,-0.2463,8.8066,-0.161,-0.211,-0.0821
18.44,-0.2351,-0.3964,9.0449,-0.3082,-0.3373,-0.0805
18.46,-0.0578,-0.3915,8.8513,-0.4441,-0.3475,-0.1333
18.48,-1.1036,-0.4636,8.6876,-0.6232,-0.319,-0.1332
18.5,-0.8208,-0.0538,9.981,-0.5114,-0.0041,-0.1208
18.52,-0.7494,0.0718,11.3537,-0.3261,0.2755,-0.1106
18.54,-0.2218,-0.2485,12.2452,-0.1193,0.4626,-0.0027
18.56,0.494,0.3485,11.891,0.1464,0.4603,0.0912
18.58,1.006,-0.1311,10.8362,0.3568,0.2367,0.034
18.6,1.3564,0.1984,9.7626,0.4916,-0.0268,0.1015
18.62,1.1701,-0.0494,9.0349,0.4818,-0.2615,0.1203
18.64,0.7056,-0.1614,8.8235,0.4539,-0.3901,0.1446
18.66,0.8156,-0.3275,8.8104,0.3258,-0.3296,0.0784
18.68,0.3858,-0.0466,9.1976,0.1704,-0.1906,0.1111
18.7,0.3123,-0.3286,9.3684,0.0215,-0.038,0.0763
18.72,0.5788,-0.232,9.4245,-0.0325,0.1622,0.0094
18.74,0.0484,-0.3276,9.1379,-0.1678,0.1358,0.0312
18.76,0.3184,-0.3348,9.6018,-0.1063,0.0944,0.0061
18.78,0.0855,-0.3843,9.739,-0.1184,0.0277,0.0178
18.8,0.0461,-0.2632,9.7795,-0.0765,-0.0014,-0.0408
18.82,-0.0142,-0.2878,10.2413,-0.0132,-0.0481,-0.0127
18.84,0.3839,-0.2027,10.1791,0.0167,0.0104,-0.0134
18.86,0.5282,0.0296,10.24,0.0317,-0.0313,-0.0014
18.88,0.3334,-0.2757,9.8461,-0.0273,-0.0404,-0.0023
18.9,0.3434,-0.2188,9.6453,0.1026,0.0707,-0.0074
18.92,0.4613,-0.3682,9.6031,0.1251,0.0908,-0.0254
18.94,0.7378,-0.3097,9.4285,0.1718,0.1621,-0.0161
18.96,0.3991,-0.0236,9.3144,0.149,0.1479,0.022
18.98,0.355,-0.0141,9.4416,0.0706,0.0691,0.0138
19.0,0.1969,0.1992,9.0457,-0.0568,-0.0876,0.047
19.02,-0.0449,-0.1949,8.8747,-0.3018,-0.2051,0.104
19.04,0.0129,-0.1138,9.1634,-0.3631,-0.3451,0.0888
19.06,-0.4089,-0.0262,9.363,-0.442,-0.307,0.1244
19.08,-0.5135,-0.4976,9.6273,-0.5752,-0.1379,0.1228
19.1,-0.4496,-0.2909,10.792,-0.4475,0.1356,0.1284
19.12,-0.4524,-0.0182,11.7427,-0.3009,0.349,0.0524
19.14,0.2922,-0.4235,12.4112,-0.0415,0.4625,-0.0156
19.16,0.9955,-0.3361,11.9241,0.208,0.3977,-0.0401
19.18,1.4057,-0.5224,10.7506,0.3963,0.1712,-0.1036
19.2,1.5039,-0.5985,9.9105,0.4953,-0.0903,-0.1051
19.22,0.9546,-0.222,9.09,0.5074,-0.3243,-0.0883
19.24,0.6876,-0.1355,9.0018,0.402,-0.3773,-0.1311
19.26,0.6891,0.1207,9.2605,0.2711,-0.2831,-0.1135
19.28,0.6488,-0.0174,9.1469,0.1076,-0.103,-0.0927
19.3,0.0754,-0.1699,9.2107,-0.0505,-0.0056,-0.0306
19.32,0.2356,0.0646,9.3276,-0.138,0.1017,-0.0401
19.34,0.1502,-0.0275,9.6325,-0.1579,0.1422,-0.0006
19.36,0.019,0.1044,9.8832,-0.086,0.1016,0.0595
19.38,0.1364,0.186,9.8941,-0.1043,0.0126,0.0027
19.4,-0.0403,0.107,9.8565,-0.0571,-0.0074,0.0064
19.42,0.4819,0.1711,10.1779,-0.038,-0.043,0.0075
19.44,0.0939,-0.1516,10.0395,0.0664,-0.0678,-0.0212
19.46,0.5561,-0.0444,9.9038,0.0007,-0.0052,-0.0113
19.48,0.3851,-0.2403,9.9621,-0.0284,0.0038,-0.0274
19.5,0.2971,-0.0081,9.6867,-0.0277,-0.0147,0.0308
19.52,0.2076,-0.1969,9.7991,-0.0095,0.0099,-0.033
19.54,0.3231,-0.3229,9.667,-0.0699,0.0085,-0.0548
19.56,0.5442,-0.0344,10.3116,-0.0134,0.0039,0.0208
19.58,0.634,-0.179,10.2118,0.0315,-0.0215,0.0268
19.6,0.5821,-0.0923,9.9505,0.038,-0.0446,-0.0129
19.62,0.6393,-0.0957,10.5278,0.0807,0.0322,0.006
19.64,0.5997,-0.0051,9.8725,0.0999,0.0536,0.0324
19.66,0.8289,0.0019,9.8631,0.1762,0.1276,-0.0086
19.68,0.6729,-0.0994,9.7289,0.1373,0.1755,0.0191
19.7,0.4436,-0.392,9.2321,0.0504,0.0672,-0.0505
19.72,0.2516,-0.3235,9.2986,0.0031,0.0408,-0.0412
19.74,0.0792,-0.0604,9.3213,-0.1244,-0.133,-0.0886
19.76,0.2675,-0.4446,9.1304,-0.3063,-0.2915,-0.1328
19.78,0.0503,-0.2263,9.4258,-0.4023,-0.3372,-0.1227
19.8,-0.356,0.1379,9.4805,-0.5104,-0.2666,-0.1225
19.82,-0.6044,0.1187,10.1755,-0.5077,-0.033,-0.1095
19.84,-0.3715,0.0922,10.9755,-0.3754,0.2141,-0.1061
19.86,-0.1025,0.0124,12.0553,-0.1792,0.4533,-0.0277
19.88,0.2188,-0.1035,12.4066,0.0549,0.5009,0.0316
19.9,1.0791,0.0876,11.4921,0.2909,0.2841,0.0489
19.92,1.2852,0.1649,10.4109,0.4746,0.0717,0.1594
19.94,1.29,-0.0016,9.6373,0.5535,-0.141,0.099
19.96,0.7406,-0.3082,8.8226,0.4164,-0.3511,0.1054
19.98,0.7965,-0.1783,9.3149,0.3617,-0.2947,0.1243
20.0,0.3704,-0.3593,9.0747,0.1329,-0.249,0.0764
20.02,0.1968,-0.3964,9.137,0.0082,-0.0587,0.0406
20.04,0.1997,-0.2132,9.3412,-0.0898,0.1082,0.0004
20.06,0.2984,-0.1074,9.5307,-0.134,0.1083,0.0273
20.08,0.3342,-0.3469,9.5265,-0.1711,0.1026,-0.0432
20.1,0.2704,-0.2997,9.4951,-0.1013,0.0904,-0.0146
20.12,0.3017,-0.2433,9.8055,-0.0999,0.033,-0.0208
20.14,0.2678,-0.3032,9.7092,-0.0389,-0.0214,-0.0094
20.16,0.7463,0.0674,9.674,-0.0265,-0.0503,0.0051
20.18,0.4181,-0.0619,10.2118,0.0216,-0.0205,0.0518
20.2,0.3424,-0.1962,10.0704,0.008,0.0357,-0.0233
20.22,0.0057,-0.3393,9.8089,-0.0374,-0.0111,-0.0632
20.24,0.5478,-0.1086,10.2615,0.038,-0.0448,0.011
20.26,0.2695,-0.598,9.6941,-0.0076,-0.0044,0.0255
20.28,0.6364,-0.0511,9.7953,0.0447,0.0204,0.0042
20.3,0.8297,0.136,9.8825,0.141,0.0119,-0.0532
20.32,0.3271,-0.3678,9.3518,0.0954,0.0655,-0.0115
20.34,0.3645,-0.1305,9.5691,0.1583,0.1118,0.0272
20.36,0.031,-0.3274,9.1438,0.092,0.122,0.0358
20.38,0.3188,-0.0214,9.3863,0.0966,0.09,0.0804
20.4,0.3261,-0.023,8.7738,-0.1165,-0.1396,0.0639
20.42,0.3187,-0.0271,9.0293,-0.2595,-0.2915,0.0654
20.44,-0.1125,-0.2137,9.2412,-0.377,-0.3328,0.0877
20.46,-0.3846,-0.1414,9.1293,-0.4641,-0.3168,0.1194
20.48,-0.8726,-0.3594,9.6484,-0.5353,-0.0686,0.1204
20.5,-0.5814,-0.4797,10.6953,-0.4065,0.2024,0.1075
20.52,-0.5093,-0.7362,11.5683,-0.2853,0.3946,0.0065
20.54,0.5785,-0.378,12.3987,-0.0061,0.5154,0.0246
20.56,0.8067,-0.377,11.6225,0.3032,0.3906,-0.0408
20.58,1.0447,-0.494,10.413,0.4231,0.1184,-0.1136
20.6,0.9394,-0.3323,9.533,0.5196,-0.1706,-0.1766
20.62,0.8828,-0.5181,9.0014,0.5119,-0.3355,-0.1236
20.64,0.2332,-0.1217,8.8318,0.3665,-0.3159,-0.1586
20.66,0.3772,-0.1835,8.8644,0.2011,-0.2339,-0.1333
20.68,0.3273,0.111,9.1589,0.0639,-0.0384,-0.0478
20.7,-0.1427,-0.1462,9.2348,-0.0724,0.0552,-0.0403
20.72,-0.1082,-0.4496,9.0153,-0.177,0.1081,-0.0407
20.74,0.2457,0.0618,9.5584,-0.1405,0.1714,0.032
20.76,0.2655,0.0492,9.5224,-0.0827,0.1581,0.0643
20.78,0.073,-0.1403,9.6281,-0.0809,0.0348,0.0224
20.8,0.007,-0.3971,9.8637,-0.081,-0.0265,0.0369
20.82,0.0989,-0.1153,10.1896,-0.0293,-0.0196,0.0369
20.84,0.3983,-0.0313,9.8711,0.0162,-0.0368,-0.002
20.86,0.0553,-0.2412,9.7559,-0.0038,-0.0127,0.0014
20.88,0.5312,-0.2335,9.8473,0.0288,-0.0065,0.0056
20.9,0.1116,-0.4748,9.6191,0.022,0.0187,-0.0162
20.92,0.3852,-0.5295,9.9174,0.0645,0.1187,0.0414
20.94,0.3716,-0.3558,9.2828,0.0986,0.0917,0.016
20.96,0.1643,-0.6139,9.397,0.1812,0.168,0.007
20.98,-0.1432,-0.4086,9.3936,0.0848,0.0896,-0.0194
21.0,0.4006,-0.2985,9.5514,0.0701,0.0726,-0.0142
21.02,0.2232,-0.1711,9.0422,-0.0968,-0.105,-0.0584
21.04,0.2146,-0.4435,8.8461,-0.2241,-0.2381,-0.0908
21.06,-0.4183,-0.0707,9.1645,-0.4122,-0.3565,-0.1272
21.08,-0.77,-0.6749,8.9682,-0.5458,-0.3077,-0.1606
21.1,-0.5506,-0.028,9.595,-0.5276,-0.0771,-0.1041
21.12,-0.7154,-0.1715,10.6405,-0.439,0.1737,-0.1034
21.14,-0.0897,0.014,12.1223,-0.1651,0.4583,-0.0755
21.16,0.2359,0.0202,11.9715,-0.0049,0.4507,-0.0206
21.18,1.0695,0.1024,11.9235,0.2548,0.408,0.0958
21.2,1.4448,0.0973,10.5036,0.4567,0.1136,0.1009
21.22,1.0045,0.0216,9.5473,0.5383,-0.1551,0.1682
21.24,0.6498,-0.263,8.6846,0.4185,-0.3863,0.1743
21.26,0.4309,-0.3358,9.01,0.3626,-0.3502,0.1244
21.28,0.5333,-0.1814,9.0825,0.2525,-0.2039,0.0806
21.3,0.4112,-0.1471,9.5565,0.0707,0.0289,0.0638
21.32,-0.1135,-0.7219,8.7823,-0.0854,0.0399,0.0345
21.34,0.0929,-0.4659,9.5901,-0.0949,0.1336,-0.0001
21.36,0.1624,-0.4764,9.4023,-0.1968,0.1716,-0.0025
21.38,-0.0201,-0.2589,9.5332,-0.1626,0.0985,0.0215
21.4,0.588,-0.1798,9.9124,-0.0728,0.0601,-0.0167
21.42,0.3216,-0.0013,10.1632,-0.0511,0.0152,-0.0191
21.44,0.3802,0.3319,10.0603,0.0079,-0.0166,0.0179
21.46,0.5468,-0.2062,10.0519,-0.0197,-0.0242,-0.0215
21.48,0.1811,-0.3024,9.6488,-0.0021,-0.0149,0.0573
21.5,0.2598,-0.1254,9.8796,-0.0195,-0.0043,-0.0174
21.52,0.2456,-0.2398,9.987,0.0111,-0.0053,0.0058
21.54,0.1365,-0.1153,9.8982,0.0087,0.0026,0.0281
21.56,-0.068,-0.2907,9.5603,-0.0277,0.0255,-0.0426
21.58,0.432,-0.1538,9.8268,-0.0162,-0.0048,-0.0113
21.6,0.3886,-0.2144,10.0026,0.0291,0.0207,-0.0014
21.62,0.496,-0.0385,9.8388,-0.0034,0.0067,0.0029
21.64,0.4304,0.0397,10.0733,-0.0115,-0.0298,-0.0049
21.66,0.1108,-0.2864,9.4948,-0.043,-0.0565,-0.0437
21.68,0.5567,0.0706,10.1362,0.001,0.0032,0.0218
21.7,0.5447,-0.2077,10.3753,0.0094,0.0255,0.0438
21.72,0.3425,-0.1419,9.9786,0.0242,0.0183,0.0013
21.74,0.9419,-0.0269,9.9048,0.0726,0.0689,-0.0222
21.76,0.3629,0.0042,9.6528,0.1354,0.1249,-0.027
21.78,0.1714,-0.0308,9.4288,0.1307,0.1204,0.0039
21.8,0.4413,-0.1967,9.6288,0.0704,0.1239,0.0281
21.82,0.3291,-0.1169,9.0991,0.0087,0.0594,0.0521
21.84,0.1113,-0.2532,9.1183,-0.1517,-0.1554,0.1011
21.86,0.2927,-0.0094,9.0422,-0.3045,-0.2659,0.0476
21.88,-0.0542,-0.0819,9.387,-0.3723,-0.3722,0.1175
21.9,-0.353,-0.3036,9.2713,-0.5131,-0.2655,0.1103
21.92,-0.5362,-0.0565,9.9191,-0.4694,-0.0251,0.1118
21.94,0.1219,0.1626,11.3069,-0.3593,0.2156,0.1091
21.96,-0.2891,-0.6024,11.5738,-0.1936,0.3941,0.0275
21.98,0.6781,-0.137,12.1849,0.0731,0.53,-0.0195
22.0,0.9434,-0.2037,11.4931,0.2877,0.3333,-0.0538
22.02,1.4148,-0.3958,10.5667,0.4449,0.0709,-0.089
22.04,1.3217,-0.2291,9.728,0.4829,-0.1933,-0.1462
22.06,0.976,-0.1709,9.248,0.4371,-0.3189,-0.1483
22.08,0.6494,-0.3443,9.3048,0.294,-0.3119,-0.1076
22.1,0.395,0.1502,9.3131,0.1802,-0.1742,-0.094
22.12,0.2432,0.0034,9.4013,0.0309,-0.0206,-0.0439
22.14,0.3854,0.18,9.7091,-0.0943,0.0987,0.0296
22.16,0.1969,-0.026,9.5127,-0.1148,0.1808,-0.0197
22.18,0.2642,-0.2495,9.6458,-0.1703,0.1388,0.0102
22.2,0.4706,0.0843,10.1311,-0.103,0.094,0.0359
22.22,0.4516,-0.0706,9.9627,-0.1147,0.0483,-0.0055
22.24,0.0356,-0.3136,9.8527,-0.06,0.0045,-0.0013
22.26,0.2165,-0.4663,10.021,-0.0172,-0.0591,0.0318
22.28,0.2251,-0.2787,10.2685,0.0053,0.0129,0.0521
22.3,0.302,-0.2879,9.837,-0.0152,-0.0075,-0.0544
22.32,0.6427,0.0146,10.0873,0.0419,0.0127,-0.0102
22.34,0.5493,0.0765,9.8574,0.0345,0.0559,-0.0095
22.36,0.4993,-0.1249,9.702,-0.0149,-0.0028,-0.0167
22.38,0.2451,-0.2751,9.6269,-0.0747,-0.0212,-0.053
22.4,0.6167,-0.3361,9.9622,-0.02,0.0454,0.0052
22.42,0.4355,-0.0911,9.8923,-0.044,-0.0321,-0.0002
22.44,0.7257,0.2091,10.4233,0.0531,0.0182,0.045
22.46,0.7123,0.1342,10.1211,0.0992,-0.0074,0.0357
22.48,0.282,-0.2894,9.8286,0.0822,0.0313,0.0002
22.5,0.7081,0.0013,9.8977,0.1263,0.1062,0.0208
22.52,0.2624,0.0718,9.4746,0.1846,0.1237,0.0147
22.54,0.2846,-0.1962,9.5279,0.1549,0.1843,-0.0151
22.56,0.4828,-0.5813,9.3582,0.0846,0.1386,0.0013
22.58,0.3197,0.0526,9.2341,-0.0053,0.0094,-0.0594
22.6,0.1323,-0.1645,8.9672,-0.2228,-0.1993,-0.0971
22.62,0.0979,-0.384,8.82,-0.3218,-0.3617,-0.1507
22.64,-0.4948,-0.2945,8.7623,-0.5284,-0.4701,-0.1413
22.66,-0.4484,-0.0439,9.026,-0.5704,-0.3118,-0.1764
22.68,-0.6987,-0.1027,9.9637,-0.569,-0.0002,-0.1184
22.7,-0.6472,-0.1731,11.0839,-0.3588,0.3266,-0.1147
22.72,-0.1918,-0.1649,12.5226,-0.1293,0.5359,-0.02
22.74,0.3628,-0.1213,12.0794,0.1295,0.5483,0.0715
22.76,0.935,0.2742,11.3879,0.351,0.3269,0.0655
22.78,1.1113,-0.0383,10.071,0.5326,0.0594,0.1565
22.8,1.1272,-0.0477,9.2743,0.6019,-0.2219,0.1458
22.82,0.7367,-0.2073,8.8619,0.5007,-0.3791,0.1124
22.84,0.4458,-0.5962,8.9253,0.3738,-0.3445,0.1516
22.86,0.605,-0.2474,8.8515,0.1453,-0.2193,0.0713
22.88,0.3978,-0.4223,9.1926,0.0269,0.0194,0.0896
22.9,-0.141,-0.5193,9.0737,-0.1611,0.0512,0.0259
22.92,0.0338,-0.4017,9.6366,-0.1601,0.156,0.0101
22.94,0.0156,-0.1989,9.4933,-0.1673,0.1444,-0.0135
22.96,0.3528,-0.2029,9.8711,-0.0665,0.0826,-0.0133
22.98,0.0637,-0.3642,9.7033,-0.1273,0.037,-0.0699
23.0,-0.251,-0.2713,9.7701,-0.1005,-0.0345,-0.0202
23.02,0.0724,-0.4061,9.7301,-0.0281,-0.0483,-0.0549
23.04,0.0575,-0.2601,9.8963,-0.0268,0.0004,-0.0023
23.06,0.2424,0.0912,9.9607,0.0369,0.0468,0.017
23.08,0.0024,-0.316,9.7852,-0.0094,0.0603,0.0084
23.1,0.3352,-0.3858,9.5093,0.015,0.0132,0.0199
23.12,0.3498,-0.1052,9.8617,0.0123,0.0381,-0.0313
23.14,-0.0443,-0.3712,9.5001,-0.0607,-0.004,-0.0381
23.16,0.4048,-0.169,9.8357,-0.0044,0.0119,0.0101
23.18,0.288,-0.2673,9.8652,0.0151,0.022,-0.0211
23.2,0.2316,-0.1157,10.1815,0.0124,0.0281,0.0019
23.22,0.2231,-0.4868,9.8818,0.0522,-0.0335,-0.004
23.24,0.0533,-0.6278,9.5014,0.0194,-0.0537,-0.0476
23.26,0.2773,-0.2449,9.2347,0.1136,0.0493,0.0057
23.28,0.3872,-0.1388,9.3685,0.1157,0.0892,-0.024
23.3,0.2887,-0.2952,9.6822,0.1982,0.1641,0.0019
23.32,0.1013,-0.3398,9.0255,0.1372,0.139,0.0086
23.34,0.381,-0.0122,9.5198,0.041,0.0186,0.0575
23.36,-0.1544,0.2162,9.128,-0.165,-0.1367,0.0498
23.38,-0.099,-0.1759,9.0163,-0.3248,-0.3236,0.0796
23.4,-0.0514,-0.1927,9.1704,-0.4318,-0.3872,0.1731
23.42,-0.7701,-0.3094,8.9294,-0.6133,-0.3362,0.1592
23.44,-0.911,-0.275,9.5548,-0.6006,-0.0317,0.1158
23.46,-0.9338,-0.3923,10.9229,-0.4408,0.2768,0.1198
23.48,-0.2716,-0.4941,12.0727,-0.1834,0.5219,0.022
23.5,0.1301,-0.9013,12.1885,0.0681,0.5512,-0.0327
23.52,1.0267,-0.3915,11.744,0.3045,0.4267,-0.0507
23.54,0.9642,-0.4875,10.0306,0.5024,0.0719,-0.1604
23.56,1.2144,-0.3829,9.2647,0.5907,-0.1876,-0.1345
23.58,1.1338,-0.0778,8.8169,0.5108,-0.3986,-0.1816
23.6,0.5168,-0.2645,8.671,0.3321,-0.4118,-0.1696
23.62,0.373,-0.3524,8.9005,0.1888,-0.2367,-0.077
23.64,0.0437,-0.2832,8.6692,-0.0493,-0.1085,-0.0618
23.66,0.218,-0.2969,9.4806,-0.0583,0.1433,-0.0347
23.68,0.1744,0.0387,9.5848,-0.1216,0.1933,-0.0149
23.7,-0.0509,-0.0911,9.5257,-0.1668,0.1574,0.0173
23.72,0.1071,-0.134,9.8148,-0.1297,0.1003,0.016
23.74,-0.0283,-0.2627,9.5486,-0.0916,0.0111,0.0233
23.76,0.102,-0.0424,9.8008,-0.0587,-0.0392,0.0217
23.78,0.2181,-0.0447,9.9882,-0.0679,-0.032,-0.0325
23.8,0.3103,-0.1595,10.0143,0.0069,0.0257,0.0083
23.82,0.241,-0.1699,9.833,-0.0177,-0.0355,-0.0145
23.84,0.1144,-0.2161,9.5411,-0.0473,-0.0048,-0.0056
23.86,-0.09,-0.5108,9.6231,-0.0659,-0.0372,-0.0421
23.88,0.3826,-0.1806,10.1382,0.054,0.0021,0.0561
23.9,0.2777,-0.4084,9.7632,-0.0525,-0.0151,0.0132
23.92,0.2495,0.1904,9.8114,-0.0273,-0.0353,-0.0383
23.94,0.3,-0.1235,10.0424,0.0472,0.0048,0.0056
23.96,0.3429,-0.3493,9.9796,0.0131,-0.0067,0.0186
23.98,0.5506,-0.1657,9.7289,-0.0062,-0.008,-0.0087
24.0,0.4058,-0.1366,9.783,0.0968,0.0556,0.0299
24.02,0.5157,-0.336,9.7513,0.0857,0.1193,0.0119
24.04,0.5886,0.0543,9.7671,0.1808,0.155,0.022
24.06,0.4643,-0.26,9.3226,0.0354,0.1197,-0.0063
24.08,0.0006,-0.3305,9.3212,0.0002,0.0217,-0.0371
24.1,0.4648,-0.0599,9.4207,-0.1496,-0.1397,-0.0565
24.12,0.1514,-0.156,9.2101,-0.3021,-0.2632,-0.1298
24.14,-0.2683,-0.0662,9.2246,-0.4707,-0.337,-0.1701
24.16,-0.3338,-0.0956,9.4482,-0.5239,-0.2365,-0.125
24.18,-0.5648,0.0356,10.1918,-0.5148,-0.0175,-0.0911
24.2,-0.2422,-0.0134,11.1136,-0.4011,0.2322,-0.082
24.22,-0.2127,-0.0859,12.0629,-0.1677,0.4237,-0.05
24.24,0.6141,0.0748,12.1094,0.0917,0.445,0.0245
24.26,1.0721,0.3837,11.5136,0.2969,0.2601,0.0613
24.28,1.1354,0.2861,10.2603,0.4382,0.0835,0.1448
24.3,1.0362,-0.0516,9.6334,0.5046,-0.1925,0.1242
24.32,1.0643,0.2347,9.2509,0.4219,-0.3212,0.0994
24.34,1.0317,-0.1267,9.5147,0.3637,-0.2747,0.176
24.36,0.4133,-0.1786,9.3335,0.1555,-0.2024,0.075
24.38,0.892,-0.1081,9.3708,-0.0099,0.0207,0.023
24.4,0.1333,-0.5588,9.5184,-0.0901,0.073,0.0003
24.42,0.1788,-0.129,9.4439,-0.1704,0.1442,-0.0322
24.44,0.4668,0.0676,9.4537,-0.1668,0.1155,-0.0126
24.46,0.631,-0.007,9.7266,-0.1031,0.0489,-0.0138
24.48,0.5053,0.065,9.8119,-0.0225,0.0364,-0.0437
24.5,0.2038,0.038,10.0105,-0.0565,-0.0198,-0.059
24.52,0.2936,-0.0258,10.1484,-0.0385,-0.0316,-0.0148
24.54,0.4312,0.0778,10.2875,0.0116,0.0047,0.0186
24.56,0.5052,0.0548,10.0091,0.0081,-0.0339,0.0533
24.58,0.7805,0.1793,10.1877,-0.0132,0.0236,0.0146
24.6,0.4533,-0.3279,10.0392,0.0325,-0.0248,-0.0163
24.62,0.4553,0.0105,10.3219,0.0517,0.0147,-0.0299
24.64,0.2864,-0.2531,9.6497,0.0075,-0.061,-0.0784
24.66,0.4808,-0.0798,9.5904,0.1103,0.0399,-0.0559
24.68,0.6301,0.0548,9.4174,0.0782,0.0828,0.0076
24.7,0.5551,0.1866,9.8759,0.1383,0.1471,0.0175
24.72,0.1221,-0.3922,9.2841,0.0744,0.1384,0.0019
24.74,0.487,-0.074,9.5055,0.0883,0.1155,0.067
24.76,0.6163,-0.0096,9.3854,-0.0655,-0.024,0.1061
24.78,-0.0276,-0.1107,9.0539,-0.3318,-0.2857,0.0629
24.8,0.1227,-0.0422,9.2732,-0.4071,-0.3711,0.1308
24.82,-0.2769,-0.2263,8.9921,-0.5693,-0.3304,0.1386
24.84,-0.6893,-0.3713,9.3727,-0.6236,-0.1837,0.1196
24.86,-0.8254,-0.2418,11.1568,-0.4852,0.1908,0.1663
24.88,-0.2426,-0.3245,11.8204,-0.303,0.4171,0.0777
24.9,0.5872,-0.3767,12.6848,-0.0417,0.5323,-0.033
24.92,1.0803,-0.3992,12.0485,0.2316,0.4631,-0.0525
24.94,1.2107,-0.3004,10.8363,0.4939,0.2094,-0.1143
24.96,1.428,-0.3364,9.6151,0.5884,-0.0942,-0.1557
24.98,0.811,-0.408,8.9884,0.5265,-0.404,-0.1669
25.0,0.5164,-0.2665,8.7015,0.4621,-0.4001,-0.1072
25.02,0.3097,-0.596,8.8545,0.2269,-0.3114,-0.1057
25.04,0.1899,0.0811,9.1309,0.0893,-0.1431,-0.0858
25.06,0.0256,-0.1673,9.492,-0.0603,0.0965,-0.0261
25.08,0.0967,-0.2528,9.1425,-0.1813,0.1437,-0.034
25.1,0.0229,-0.1213,9.3959,-0.1728,0.1754,0.0016
25.12,-0.0128,-0.2228,9.2672,-0.1853,0.0652,0.0107
25.14,0.1339,-0.0767,9.6265,-0.1118,0.0436,-0.0142
25.16,0.2793,-0.2255,9.8517,-0.0364,-0.0443,0.0706
25.18,-0.1861,-0.4416,9.5651,-0.1147,-0.1118,-0.0192
25.2,0.5496,-0.5577,9.8532,-0.012,0.0283,-0.001
25.22,0.0015,-0.2405,9.7421,-0.0098,-0.0254,0.01
25.24,0.1181,-0.0776,9.5205,0.0555,0.0007,0.003
25.26,0.0257,-0.4503,9.3233,-0.0722,-0.019,-0.034
25.28,0.0416,-0.2799,9.6517,-0.0584,0.0115,0.0063
25.3,0.2071,-0.189,9.9054,0.0248,0.025,0.0236
25.32,0.4642,0.1131,9.8462,0.0358,0.0713,-0.0056
25.34,0.0723,-0.3945,9.7702,0.0144,-0.0442,-0.0078
25.36,0.1645,-0.5398,9.7178,-0.0183,-0.0248,-0.0015
25.38,0.0917,-0.2126,9.6737,0.0346,-0.0697,0.0275
25.4,0.016,-0.5086,9.3719,0.0815,0.0135,0.0239
25.42,0.2887,-0.315,9.4326,0.1398,0.0586,0.0418
25.44,-0.0896,-0.463,8.9457,0.1128,0.1669,-0.0064
25.46,0.2459,-0.3285,9.1064,0.0773,0.1829,0.0131
25.48,-0.054,-0.6838,8.9465,0.011,0.0256,-0.071
25.5,-0.0086,-0.3327,9.1347,-0.0847,-0.1298,-0.0611
25.52,0.0574,-0.56,8.9841,-0.281,-0.2274,-0.1199
25.54,0.1073,-0.1393,9.1723,-0.3622,-0.3818,-0.0966
25.56,-0.8864,-0.2258,8.8846,-0.5944,-0.3323,-0.1952
25.58,-0.9299,-0.3117,9.4375,-0.5956,-0.1176,-0.1166
25.6,-0.5317,0.0081,10.6807,-0.4687,0.1825,-0.0961
25.62,-0.4394,-0.2284,11.8077,-0.2511,0.4533,-0.0346
25.64,0.6546,0.1743,12.4661,0.0398,0.5501,0.0095
25.66,0.5514,0.0524,11.6943,0.2632,0.4161,0.0383
25.68,1.0116,-0.1454,10.3584,0.4231,0.1412,0.0896
25.7,1.042,-0.0278,9.4815,0.605,-0.1385,0.1394
25.72,0.8309,-0.1375,8.9204,0.5129,-0.3683,0.1449
25.74,0.5867,-0.4385,8.7863,0.4319,-0.3627,0.1106
25.76,0.007,-0.5505,8.8496,0.2073,-0.2462,0.1076
25.78,0.2499,-0.4527,9.2405,0.0926,-0.0781,0.0697
25.8,0.3844,-0.3586,9.1638,-0.0696,0.0696,0.0426
25.82,-0.0815,-0.0299,9.5552,-0.1412,0.1803,0.0014
25.84,0.5907,-0.3318,9.6733,-0.1125,0.1638,0.0092
25.86,-0.0098,-0.3811,9.4914,-0.1329,0.0675,-0.0298
25.88,0.2002,-0.2946,9.4342,-0.1237,0.0547,-0.0322
25.9,-0.0485,0.0122,9.868,-0.0531,0.0204,-0.0165
25.92,0.1496,-0.6771,9.6024,-0.0679,0.0044,-0.0365
25.94,0.1367,-0.2396,9.7317,-0.0026,-0.0191,0.0206
25.96,0.2854,-0.0884,9.9545,0.0536,-0.0508,-0.0019
25.98,0.2162,-0.4473,9.7454,-0.0324,-0.006,0.0077
26.0,0.5658,-0.1918,10.1058,0.0274,0.0775,0.0012
26.02,0.3107,-0.1847,9.7757,-0.0143,0.0011,-0.0283
26.04,0.4355,-0.0087,9.6365,0.0592,0.0235,0.0015
26.06,0.3258,-0.1614,9.7894,0.0157,0.0177,-0.0123
26.08,0.2535,-0.3007,9.7891,-0.019,-0.0126,-0.0014
26.1,0.3618,-0.0532,9.8725,0.0099,-0.0218,0.0348
26.12,0.3355,-0.2339,9.7802,0.0165,-0.0115,-0.0277
26.14,0.5218,-0.1074,9.6424,0.0449,0.0334,-0.028
26.16,0.4006,-0.1879,9.6837,0.1265,0.0919,-0.0008
26.18,0.2188,-0.3719,9.2432,0.098,0.1214,-0.0475
26.2,0.3578,-0.2111,9.4072,0.0826,0.1082,-0.0105
26.22,0.5145,0.0186,9.2298,0.0161,0.0854,-0.0026
26.24,0.2102,0.0903,9.3578,-0.0409,-0.0708,0.0462
26.26,0.2664,-0.1027,9.1318,-0.1695,-0.2183,0.1007
26.28,-0.0255,-0.2602,8.8729,-0.4021,-0.3209,0.0788
26.3,-0.4603,0.0012,9.2152,-0.4891,-0.3197,0.1174
26.32,-0.5179,-0.6751,9.4851,-0.513,-0.1615,0.1662
26.34,-0.302,-0.1208,10.8863,-0.401,0.1548,0.1232
26.36,-0.0056,-0.3738,11.7058,-0.221,0.3685,0.0572
26.38,0.2209,-0.382,11.8432,-0.0464,0.4593,-0.0101
26.4,0.7476,-0.3224,11.5719,0.1798,0.3559,-0.0596
26.42,1.0821,-0.2862,10.6717,0.4043,0.192,-0.0927
26.44,1.3048,-0.1941,10.054,0.4952,-0.0637,-0.0994
26.46,1.1823,-0.3124,9.5243,0.5027,-0.2397,-0.1447
26.48,0.98,-0.154,9.4807,0.3775,-0.2724,-0.1166
26.5,0.529,0.1509,9.4578,0.227,-0.232,-0.0512
26.52,0.4922,-0.1459,9.2681,0.0797,-0.0784,-0.0165
26.54,0.4168,-0.1615,9.3899,-0.0254,0.0323,-0.0127
26.56,0.2968,0.0596,9.6537,-0.1228,0.1512,-0.0492
26.58,0.1332,-0.03,9.9049,-0.0935,0.1485,0.0175
26.6,0.3024,0.1131,9.7362,-0.1199,0.0692,0.0078
26.62,-0.0021,0.1749,9.7159,-0.1153,0.028,0.0118
26.64,0.1675,-0.1259,10.3557,-0.032,0.0472,0.0778
26.66,0.2384,0.0082,9.8118,-0.0371,-0.0244,-0.0161
26.68,0.4846,-0.3521,9.9783,-0.0231,-0.008,0.0084
26.7,0.2484,-0.0883,9.7818,-0.0052,0.0061,-0.0127
26.72,0.4785,0.1187,10.0644,-0.0059,0.048,0.0434
26.74,0.4572,-0.0024,9.6615,-0.0363,-0.0284,0.0442
26.76,0.497,-0.2293,9.799,0.0288,-0.0121,0.0061
26.78,0.107,-0.0991,10.089,-0.0254,-0.0146,0.0506
26.8,0.1144,-0.1656,9.8116,-0.03,-0.0847,-0.0594
26.82,0.7539,-0.0819,10.1341,0.0326,-0.0137,0.024
26.84,0.6073,-0.1716,9.7245,0.0897,0.049,-0.0026
26.86,0.234,-0.1241,9.5162,0.1038,0.1065,0.0013
26.88,0.4036,-0.1784,9.4143,0.1403,0.1137,0.0407
26.9,0.4532,0.1229,9.4929,0.1513,0.1393,-0.0351
26.92,0.2089,-0.1802,9.2799,0.0196,0.0642,-0.0355
26.94,0.4213,-0.2376,9.257,-0.1213,-0.0856,-0.0443
26.96,0.4618,-0.3507,9.1879,-0.2714,-0.315,-0.1046
26.98,-0.2811,-0.1249,9.1237,-0.4628,-0.3957,-0.1769
27.0,-0.6717,-0.1441,8.956,-0.5826,-0.386,-0.1609
27.02,-0.4259,0.0584,9.631,-0.6057,-0.1368,-0.138
27.04,-0.4643,0.3672,11.01,-0.458,0.2029,-0.1104
27.06,-0.3119,-0.0742,11.7209,-0.3494,0.423,-0.1105
27.08,0.2926,0.2084,12.5639,-0.0361,0.5876,-0.0471
27.1,0.6779,-0.0104,11.6498,0.257,0.3974,0.0597
27.12,1.209,0.2194,10.6483,0.5117,0.1644,0.0799
27.14,1.3096,-0.1059,9.6167,0.5362,-0.1101,0.1838
27.16,1.4945,-0.1564,9.4745,0.555,-0.3313,0.1658
27.18,0.9533,-0.3271,9.0684,0.4422,-0.3279,0.1682
27.2,0.2861,-0.4631,8.842,0.2488,-0.3042,0.0656
27.22,0.1314,-0.3966,8.9227,0.11,-0.0949,0.0473
27.24,-0.0629,-0.3822,9.0624,-0.045,0.0619,0.0398
27.26,0.3095,-0.2212,9.7447,-0.1374,0.1514,0.018
27.28,0.2385,-0.0134,9.5449,-0.1618,0.1247,0.0115
27.3,0.2827,-0.2562,9.6489,-0.1673,0.1097,-0.0327
27.32,0.1101,-0.1438,9.7223,-0.1144,0.0138,-0.0108
27.34,0.4061,-0.0671,10.0815,-0.042,0.0263,-0.0466
27.36,-0.0996,-0.363,9.9599,-0.0607,-0.003,-0.004
27.38,0.4455,-0.022,10.2288,0.0473,-0.0003,0.0333
27.4,0.0754,0.0011,9.8162,0.0291,0.0344,-0.0195
27.42,0.154,-0.0089,9.8929,0.0045,0.0055,0.0068
27.44,0.0325,-0.2597,9.7632,0.0061,0.0117,0.0046
27.46,-0.1735,-0.2246,9.7383,-0.0047,0.0046,0.0157
27.48,0.0411,-0.1227,9.7008,-0.0327,-0.0391,-0.0376
27.5,-0.0464,-0.1917,9.6518,0.0235,0.0298,0.0099
27.52,0.0428,-0.4806,9.4896,-0.0095,0.0144,-0.0095
27.54,-0.0283,-0.3108,9.4686,-0.0585,0.0049,-0.0448
27.56,0.046,-0.1445,9.6161,-0.0352,0.0155,-0.0034
27.58,0.1167,-0.3995,9.4415,-0.0629,-0.0262,-0.0466
27.6,0.1857,-0.1926,9.7829,-0.0363,-0.0368,-0.0372
27.62,0.2094,-0.3494,10.0664,-0.0296,0.0153,-0.0356
27.64,0.2513,-0.0893,9.8267,0.0516,0.0021,0.0225
27.66,0.2944,-0.5113,9.5896,0.0956,0.0447,-0.0315
27.68,0.5701,-0.3496,9.6109,0.0923,0.0972,-0.0155
27.7,0.5399,-0.0688,9.5578,0.0882,0.1475,-0.0004
27.72,0.2378,0.0368,9.2448,0.1436,0.1766,0.0399
27.74,0.3723,-0.1968,9.2765,0.0269,0.0569,0.0678
27.76,0.2766,-0.2709,9.1246,-0.127,-0.0624,0.0653
27.78,0.1126,-0.2256,9.3326,-0.2764,-0.232,0.0946
27.8,-0.2185,-0.0865,9.066,-0.382,-0.3813,0.1012
27.82,-0.704,-0.395,8.8402,-0.4554,-0.3221,0.1454
27.84,-0.8867,-0.789,9.5845,-0.4638,-0.0798,0.1638
27.86,-0.5455,-0.5094,10.6273,-0.4008,0.1932,0.1112
27.88,-0.28,-0.6963,11.5439,-0.2672,0.3968,0.0197
27.9,0.199,-0.4825,11.9151,0.0263,0.4513,-0.0056
27.92,0.5313,-0.2498,11.744,0.2378,0.3762,-0.0914
27.94,0.767,-0.4586,10.2893,0.4268,0.0869,-0.0948
27.96,1.2268,-0.1095,9.7047,0.5839,-0.1397,-0.1068
27.98,0.9447,-0.1679,9.0763,0.4099,-0.3258,-0.0693
28.0,0.4556,-0.5726,8.7264,0.3438,-0.3449,-0.1358
28.02,0.6178,-0.0705,8.9912,0.2265,-0.2061,-0.0953
28.04,0.2709,-0.3812,9.1091,0.0063,-0.037,-0.0631
28.06,0.1919,0.2186,9.3733,0.0203,0.066,-0.0281
28.08,-0.1806,-0.1039,9.4929,-0.1764,0.1353,-0.0571
28.1,-0.0626,-0.3636,9.209,-0.186,0.0919,0.0159
28.12,0.0246,-0.4425,9.2031,-0.1878,0.0802,-0.0182
28.14,0.2631,-0.211,9.8416,-0.0453,0.0972,0.0262
28.16,-0.0125,-0.0377,9.9085,-0.0723,-0.0107,0.0111
28.18,-0.008,-0.1236,9.8017,0.0034,-0.0166,0.0185
28.2,0.2353,-0.3269,9.8105,0.0061,-0.029,0.0126
28.22,-0.1303,-0.3471,9.53,-0.075,-0.0422,0.0087
28.24,0.4847,-0.0411,9.8744,0.0228,0.0487,0.0532
28.26,0.1412,-0.2305,9.6638,-0.0355,-0.0187,-0.0304
28.28,0.1298,-0.1995,9.7237,0.0102,-0.0229,-0.0016
28.3,0.0779,-0.3779,9.6237,-0.032,-0.0773,-0.0121
28.32,0.0616,-0.527,9.6709,-0.0333,-0.0766,-0.0163
28.34,0.1455,-0.3338,9.3051,0.024,-0.0133,0.0259
28.36,0.2592,0.0283,9.4682,0.1439,0.0274,-0.0159
28.38,0.3275,-0.2035,9.4216,0.1103,0.0822,0.0143
28.4,0.3776,-0.168,9.3616,0.1223,0.131,0.009
28.42,0.2107,-0.2176,9.525,0.1373,0.1399,-0.0221
28.44,0.1601,-0.4858,8.8534,-0.0242,0.0162,-0.0644
28.46,0.1742,-0.2529,9.1254,-0.136,-0.1039,-0.0166
28.48,0.0226,-0.0999,9.3738,-0.2922,-0.3174,-0.109
28.5,-0.1799,-0.1558,9.2234,-0.4897,-0.4474,-0.18
28.52,-0.2936,-0.2521,9.2076,-0.5755,-0.3479,-0.1522
28.54,-0.3657,0.0541,9.8964,-0.6019,-0.0655,-0.1143
28.56,-0.4261,0.3172,10.7945,-0.4933,0.2785,-0.0982
28.58,-0.1954,0.1215,11.4228,-0.1788,0.5441,-0.0552
28.6,0.2118,0.3822,11.7557,0.0203,0.5608,0.041
28.62,0.9186,0.2394,11.3029,0.3204,0.3814,0.057
28.64,0.6674,-0.1563,9.9425,0.5067,0.0739,0.1051
28.66,1.2496,0.2428,9.5701,0.6185,-0.1755,0.1856
28.68,0.9959,-0.2679,9.2969,0.4967,-0.3609,0.1336
28.7,0.7526,0.0983,9.3934,0.4311,-0.3833,0.1351
28.72,0.8844,0.2452,9.4703,0.2294,-0.2585,0.1183
28.74,0.4924,0.0023,9.4286,0.0615,-0.0648,0.1115
28.76,0.1955,-0.3659,9.3309,-0.0775,0.0834,0.0276
28.78,0.073,-0.2669,9.2066,-0.1817,0.1664,0.05
28.8,0.5786,-0.1645,9.7907,-0.099,0.1559,-0.0201
28.82,0.4659,-0.0077,9.6229,-0.1241,0.125,-0.0045
28.84,0.1191,-0.1408,9.5327,-0.1247,-0.0267,-0.0528
28.86,0.3738,0.0005,10.003,-0.0625,-0.0341,0.0057
28.88,0.5333,0.1264,10.2947,0.0075,-0.0399,-0.0017
28.9,0.1801,-0.0433,9.8595,-0.0016,-0.0271,0.0049
28.92,0.2891,-0.0737,9.9277,0.0228,0.0167,-0.0404
28.94,0.8286,0.1077,9.9033,0.0243,0.0177,0.0239
28.96,0.721,0.3777,10.0276,0.0892,0.0504,0.025
28.98,0.4452,-0.3269,9.8858,0.0325,-0.037,-0.0199
29.0,0.4856,0.0949,9.9648,0.012,0.0057,0.0375
29.02,0.3419,0.0871,9.8862,-0.0091,0.0636,0.0119
29.04,0.3787,-0.1845,9.9042,-0.0661,0.0126,-0.0128
29.06,0.2739,-0.1951,9.7614,-0.006,-0.0373,-0.0447
29.08,0.2999,-0.0689,9.9741,-0.0011,-0.0481,0.0083
29.1,0.6355,0.1831,9.8883,-0.0195,0.0226,-0.0122
29.12,0.6308,0.3157,10.2711,0.1359,0.0173,-0.0424
29.14,0.7275,0.2839,9.711,0.1056,0.0561,-0.0131
29.16,0.5017,-0.0151,9.6499,0.141,0.1298,0.0161
29.18,0.375,-0.1141,9.4616,0.1233,0.1068,-0.013
29.2,0.1483,-0.0038,9.2938,0.0868,0.1153,0.039
29.22,0.5067,0.3862,9.6012,-0.0354,0.0021,0.0566
29.24,0.3624,-0.0024,9.2569,-0.1389,-0.1471,0.0596
29.26,-0.2596,-0.0615,9.4662,-0.3033,-0.3359,0.1296
29.28,-0.2205,0.0058,9.2795,-0.5076,-0.3515,0.1402
29.3,-0.2762,-0.1785,9.3919,-0.5182,-0.2647,0.14
29.32,-0.6564,-0.2116,10.263,-0.4602,0.01,0.1482
29.34,-0.6102,-0.3389,11.0623,-0.4131,0.2911,0.0826
29.36,0.1179,-0.0304,12.3112,-0.1684,0.4804,0.03
29.38,0.9842,-0.2596,12.0724,0.1026,0.4534,-0.0613
29.4,1.1571,-0.2568,11.5872,0.3342,0.2609,-0.0565
29.42,1.2813,-0.3326,10.1319,0.4949,0.0293,-0.1169
29.44,1.0736,0.0069,9.3432,0.5664,-0.2289,-0.1649
29.46,0.5552,-0.5227,8.8154,0.4036,-0.41,-0.1688
29.48,0.3961,-0.4155,9.0143,0.3215,-0.3225,-0.1255
29.5,0.1805,0.003,9.0341,0.1308,-0.1885,-0.0991
29.52,0.0285,-0.0763,9.4569,-0.0026,-0.04,-0.0279
29.54,0.2347,-0.0341,9.3983,-0.0641,0.0987,-0.0304
29.56,0.1528,0.3577,9.7141,-0.0878,0.1986,0.0126
29.58,-0.0312,-0.0621,9.5631,-0.1761,0.1112,-0.0122
29.6,0.4222,-0.0938,9.8117,-0.1139,0.0885,0.0173
29.62,0.3095,0.0571,9.9161,-0.0411,0.061,0.0394
29.64,0.1128,-0.268,9.7086,-0.0615,-0.036,0.0262
29.66,0.0534,-0.2748,9.6719,-0.0598,-0.0239,-0.0523
29.68,0.4703,-0.1851,9.886,-0.0005,-0.03,0.0467
29.7,0.2355,-0.1764,9.6863,0.0009,-0.0348,-0.0374
29.72,0.2613,-0.2701,9.7743,0.0333,0.0181,-0.022
29.74,0.1094,-0.2883,9.5016,-0.0235,-0.0218,-0.0106
29.76,0.5341,-0.1189,9.771,0.012,0.0533,-0.0372
29.78,0.0894,-0.222,9.5979,0.018,-0.0119,0.0019
29.8,0.162,0.1472,10.0498,0.0123,0.0335,-0.029
29.82,0.4076,-0.2126,9.8528,-0.0483,0.0137,-0.0134
29.84,0.3677,-0.3102,9.666,-0.0427,-0.038,0.0382
29.86,0.4284,-0.2419,9.909,-0.0006,-0.0336,0.0047
29.88,0.3486,-0.1482,10.0699,0.0868,0.0266,0.043
29.9,0.4552,-0.2675,9.6514,0.1384,-0.0064,0.0068
29.92,0.4419,-0.1747,9.3416,0.111,0.0955,0.025
29.94,0.4605,-0.3459,9.1189,0.1814,0.1441,0.0099
29.96,0.4539,-0.3809,9.1282,0.1159,0.1479,-0.0061
29.98,0.4521,-0.1587,9.0221,0.0711,0.1115,-0.0255
30.0,0.0418,-0.42,9.0033,-0.0268,-0.0747,-0.1072
30.02,-0.0464,-0.3764,9.0134,-0.2617,-0.2827,-0.1119
30.04,-0.3121,-0.4985,9.0381,-0.3963,-0.3851,-0.1299
30.06,-0.8049,-0.1227,8.7324,-0.5879,-0.3698,-0.1443
30.08,-0.9463,0.1946,9.5173,-0.5983,-0.1602,-0.1713
30.1,-0.8353,0.2881,10.4036,-0.5084,0.1272,-0.0833
30.12,-0.5695,-0.1525,11.2382,-0.3049,0.386,-0.0426
30.14,0.2493,0.2006,12.773,-0.0177,0.607,-0.025
30.16,0.6607,0.1293,12.1898,0.2553,0.4687,0.1011
30.18,1.1201,0.1745,10.7456,0.4215,0.199,0.1366
30.2,1.5959,0.1031,9.7964,0.5912,-0.0955,0.1448
30.22,1.1074,-0.1371,8.6967,0.4917,-0.3279,0.1321
30.24,0.6973,-0.3625,8.7285,0.4575,-0.3864,0.1648
30.26,0.3513,-0.5037,8.9863,0.279,-0.3129,0.0628
30.28,0.1895,-0.4149,8.8906,0.0879,-0.1313,0.0774
30.3,0.2636,-0.5669,9.0718,-0.1081,0.0511,0.0271
30.32,-0.3008,-0.5859,9.187,-0.1509,0.1463,-0.0316
30.34,-0.0023,-0.2084,9.5068,-0.19,0.1787,0.0228
30.36,-0.0521,-0.4501,9.1565,-0.2007,0.1042,-0.0233
30.38,-0.0171,-0.3229,9.3179,-0.0976,0.0478,-0.0648
30.4,0.0723,-0.4967,9.6829,-0.0593,-0.0013,-0.0195
30.42,0.5003,-0.0548,10.1252,-0.0051,-0.0198,0.0074
30.44,0.4931,-0.2399,9.8095,0.0286,0.0026,-0.0152
30.46,-0.0315,-0.2381,9.649,-0.0043,0.0192,0.0093
30.48,-0.1221,-0.4021,9.7685,-0.007,-0.0273,-0.0111
30.5,0.0927,-0.2642,9.5797,-0.0054,-0.0677,0.012
30.52,0.6262,0.1851,10.3112,0.0503,0.04,0.0096
30.54,0.5166,-0.1462,9.7759,0.0375,-0.0008,0.0006
30.56,0.0954,-0.222,9.355,0.0882,0.0533,-0.031
30.58,0.3573,-0.222,9.6054,0.1282,0.123,-0.0078
30.6,0.1982,-0.219,9.6249,0.1834,0.1242,-0.0016
30.62,0.3453,-0.2104,9.0403,0.0834,0.1299,0.0227
30.64,0.3362,-0.1366,9.3553,0.0189,0.0889,0.0147
30.66,0.4974,0.029,9.1343,-0.0746,-0.0562,0.0705
30.68,0.2129,-0.122,8.9352,-0.2228,-0.2185,0.096
30.7,-0.3526,0.2394,9.0465,-0.3637,-0.343,0.1142
30.72,-0.5004,-0.2518,9.0623,-0.4792,-0.2594,0.1345
30.74,-0.3042,-0.6904,9.4011,-0.5537,-0.1858,0.141
30.76,-0.6641,-0.5226,10.5073,-0.435,0.1518,0.1043
30.78,-0.2831,-0.3514,11.6624,-0.2466,0.3862,0.0283
30.8,0.0667,-0.6393,11.8831,-0.0246,0.4158,-0.0087
30.82,0.5913,-0.2414,11.4287,0.2282,0.3759,-0.064
30.84,1.326,-0.2964,10.7238,0.4204,0.1535,-0.125
30.86,1.4218,0.1026,9.6656,0.5153,-0.0768,-0.0644
30.88,0.9381,-0.2172,9.3204,0.5262,-0.3084,-0.1317
30.9,0.7396,-0.0059,9.1691,0.4303,-0.3388,-0.101
30.92,0.6266,0.1669,9.4103,0.2629,-0.2092,-0.0659
30.94,0.581,0.2316,9.4358,0.0949,-0.0793,-0.0364
30.96,0.0937,-0.1459,9.1333,-0.1007,0.0073,-0.0513
30.98,0.4013,0.0571,9.5657,-0.1288,0.1162,-0.0207
31.0,0.1282,0.0455,9.5207,-0.1434,0.1403,-0.0143
31.02,0.2612,-0.067,9.4913,-0.1506,0.0814,0.0078
31.04,0.2594,-0.0895,9.6407,-0.1205,0.0265,0.0013
31.06,-0.0888,0.0363,9.6457,-0.0862,-0.0277,0.0055
31.08,0.0497,-0.2042,9.8851,-0.0618,-0.0975,-0.007
31.1,0.1399,-0.2245,9.8141,-0.0374,-0.0359,0.0014
31.12,0.5041,-0.0056,10.0383,0.0094,-0.0507,0.0159
31.14,0.4421,-0.0993,9.7954,0.0484,-0.023,0.0003
31.16,0.7108,0.1504,10.1885,0.1061,0.0265,0.0392
31.18,0.6004,0.047,10.015,0.1639,0.0957,0.0537
31.2,0.6181,-0.3679,9.5807,0.0953,0.1197,0.0091
31.22,0.609,-0.3823,9.4303,0.0916,0.1471,-0.0089
31.24,0.6899,-0.1504,9.2252,0.0773,0.0663,-0.0133
31.26,0.1289,-0.3636,9.0212,-0.0613,-0.0559,-0.0471
31.28,0.2425,0.0927,9.3068,-0.1567,-0.1294,-0.0836
31.3,-0.0473,0.0501,9.1582,-0.315,-0.2748,-0.0887
31.32,-0.2393,-0.1701,9.1782,-0.4233,-0.3212,-0.1274
31.34,-0.042,0.1681,9.7371,-0.4479,-0.1271,-0.0952
31.36,-0.2037,0.0658,10.2674,-0.3655,0.0751,-0.1114
31.38,0.0259,-0.1359,10.9362,-0.3178,0.2059,-0.1214
31.4,0.2887,0.4215,12.3846,-0.0499,0.3811,0.0463
31.42,0.7684,0.0153,11.4976,0.1682,0.3964,0.0565
31.44,1.2503,0.1241,10.8088,0.3008,0.1752,0.0505
31.46,0.9524,0.0614,9.7668,0.3569,-0.0634,0.0412
31.48,1.2572,0.0841,9.3252,0.401,-0.2256,0.0967
31.5,0.9601,0.0605,9.3065,0.381,-0.3121,0.0894
31.52,0.6155,-0.0395,9.2687,0.2256,-0.251,0.0919
31.54,0.6004,0.0642,9.31,0.1243,-0.1483,0.0762
31.56,0.7274,0.0541,9.506,0.0181,-0.0024,0.0837
31.58,0.5288,-0.1898,9.8371,-0.0847,0.1259,-0.0192
31.6,0.5042,-0.3541,9.5876,-0.125,0.1148,-0.0013
31.62,0.2431,-0.3164,9.5721,-0.1559,0.0708,-0.0211
31.64,0.5629,-0.2924,10.0913,-0.1019,0.0045,0.0208
31.66,0.3456,-0.1712,10.1282,-0.0494,-0.0449,-0.0209
31.68,0.5511,-0.0881,10.3394,0.067,-0.035,-0.0016
31.7,0.5578,-0.1423,10.0056,0.0536,-0.0399,-0.054
31.72,0.679,-0.0734,9.8847,0.1102,0.0473,-0.044
31.74,0.784,0.1928,10.0389,0.098,0.1107,-0.0487
31.76,0.3621,-0.1916,9.648,0.1511,0.12,0.0199
31.78,0.3943,0.2727,9.5362,0.1324,0.1418,-0.0079
31.8,0.5246,0.0335,9.292,0.0282,0.0508,0.025
31.82,0.2023,0.1131,9.1194,-0.1726,-0.1,0.0668
31.84,0.157,-0.083,9.1802,-0.2815,-0.2652,0.0804
31.86,-0.1445,-0.0004,8.9362,-0.4363,-0.401,0.1134
31.88,-0.4216,-0.0512,9.2131,-0.5379,-0.3293,0.1127
31.9,-0.9527,-0.7105,9.6007,-0.5618,-0.1176,0.0767
31.92,-1.1472,-0.6332,10.5456,-0.4654,0.1638,0.0983
31.94,-0.0262,0.0283,12.4308,-0.213,0.4442,0.0624
31.96,0.2756,-0.4548,12.1955,-0.0049,0.4623,-0.0208
31.98,0.864,-0.5879,12.0775,0.2606,0.3625,-0.0631
32.0,1.4268,-0.2191,10.5854,0.4444,0.1421,-0.1373
32.02,1.3786,-0.1022,9.7596,0.5525,-0.1251,-0.0938
32.04,1.1289,-0.2841,8.8609,0.4688,-0.4106,-0.165
32.06,0.8931,0.1238,9.0031,0.3769,-0.3691,-0.1253
32.08,0.6708,0.2341,9.0531,0.2561,-0.2689,-0.1337
32.1,0.132,-0.0438,9.2701,0.0781,-0.0752,-0.044
32.12,0.2678,-0.0508,9.4256,-0.0521,0.0822,-0.0436
32.14,0.2241,0.0078,9.6493,-0.1041,0.1797,-0.0307
32.16,0.1854,-0.0312,9.5058,-0.1447,0.1542,0.0249
32.18,-0.0115,0.0158,9.65,-0.1155,0.0432,0.0449
32.2,-0.1052,-0.0045,9.7689,-0.1008,0.0256,0.0094
32.22,0.2334,-0.2273,9.8106,-0.0271,-0.0229,0.0018
32.24,0.3437,0.0896,9.9787,-0.0359,-0.0384,0.0047
32.26,0.4001,-0.2099,10.1831,0.0067,-0.0514,0.0102
32.28,-0.0065,-0.3636,9.7723,-0.029,-0.0579,-0.0241
32.3,0.1145,-0.4699,9.7725,0.0523,-0.0072,0.0037
32.32,0.1239,-0.1024,9.9472,0.0545,-0.0096,-0.003
32.34,0.2049,-0.3837,9.9539,0.022,0.0423,0.0173
32.36,0.2157,-0.284,9.7984,-0.0192,-0.0109,0.0224
32.38,0.3383,-0.0976,9.5291,0.0366,0.0064,0.016
32.4,0.3294,-0.1538,10.0851,0.0347,0.048,0.0558
32.42,0.1446,0.1219,9.9316,0.0145,-0.0172,0.0184
32.44,0.4304,-0.2931,9.6553,-0.0047,-0.0537,-0.0059
32.46,0.4507,-0.263,9.9109,0.0137,-0.0697,0.0342
32.48,0.2081,-0.2073,9.6895,0.062,-0.0171,0.0459
32.5,0.5284,-0.3778,9.6979,0.0745,0.0202,0.0354
32.52,0.1652,-0.6133,9.1353,0.0777,0.0149,-0.0375
32.54,0.1401,-0.3659,9.524,0.1925,0.1031,0.0246
32.56,0.2094,-0.428,9.1452,0.1432,0.1722,-0.0506
32.58,0.0044,-0.4489,9.1543,0.1291,0.1249,-0.005
32.6,0.0459,-0.5886,9.0104,-0.0301,-0.073,-0.0995
32.62,0.0738,-0.2161,8.7686,-0.1552,-0.2018,-0.0933
32.64,-0.3531,-0.2228,8.9071,-0.3759,-0.329,-0.1354
32.66,-0.2658,-0.1056,8.9408,-0.4949,-0.426,-0.1442
32.68,-0.851,0.0443,9.0428,-0.5756,-0.249,-0.1382
32.7,-0.9909,-0.0716,9.9655,-0.5781,0.0053,-0.1183
32.72,-1.1523,-0.229,11.2558,-0.436,0.3095,-0.1295
32.74,0.0673,0.0993,12.9147,-0.1158,0.5102,-0.0003
32.76,0.2589,0.0063,12.5408,0.1442,0.5723,0.0048
32.78,0.9712,0.1214,11.5612,0.391,0.3383,0.117
32.8,1.4304,0.133,10.1451,0.5649,0.0347,0.1244
32.82,1.2495,-0.2171,9.3822,0.6142,-0.2345,0.161
32.84,1.0396,-0.3834,9.0246,0.5778,-0.4038,0.1079
32.86,0.7375,-0.3258,8.4995,0.3563,-0.3978,0.0997
32.88,0.42,-0.0166,9.0987,0.2273,-0.1823,0.0888
32.9,0.3958,-0.2578,9.2125,0.0572,-0.0096,0.0802
32.92,0.2246,-0.3375,9.114,-0.074,0.1635,0.0696
32.94,0.2208,-0.1104,9.7093,-0.0903,0.1803,0.0618
32.96,-0.1877,-0.4108,9.2973,-0.1757,0.1049,-0.0209
32.98,0.1049,-0.2874,9.4849,-0.1618,0.0327,-0.0443
33.0,0.098,0.1226,9.6389,-0.0399,-0.0208,-0.038
33.02,0.1523,-0.115,9.9453,-0.0252,-0.073,-0.0152
33.04,-0.0252,-0.0959,10.0441,-0.0774,-0.044,-0.006
33.06,0.022,0.0971,9.7689,0.0593,-0.0286,0.0036
33.08,0.5406,-0.3149,9.5566,0.0293,-0.0171,-0.0157
33.1,0.4829,-0.1257,9.975,0.0442,-0.0041,0.0083
33.12,0.0696,-0.2684,9.66,-0.0016,-0.0559,-0.033
33.14,0.0264,-0.2339,9.5987,-0.0173,-0.0398,-0.0299
33.16,0.143,-0.3808,9.869,-0.0528,-0.0369,-0.0234
33.18,0.3648,0.1943,10.0138,0.0741,0.0308,-0.0139
33.2,0.4716,0.014,9.8314,0.0542,0.0041,0.0079
33.22,0.4057,0.0106,10.1684,0.132,0.0703,-0.0275
33.24,0.6659,0.2227,9.6719,0.1764,0.1045,-0.0284
33.26,0.6378,0.1731,9.5732,0.1366,0.1629,-0.0016
33.28,0.5929,0.2074,9.5047,0.1865,0.1805,-0.0115
33.3,0.522,0.066,9.4379,0.0931,0.0888,0.0852
33.32,0.2444,-0.026,9.2893,-0.1229,-0.075,0.0684
33.34,0.0345,-0.1325,8.8493,-0.2606,-0.2601,0.1038
33.36,-0.1688,-0.1882,8.9132,-0.4186,-0.4161,0.1336
33.38,-0.6713,0.028,9.1625,-0.5453,-0.3873,0.1704
33.4,-0.6282,-0.3374,9.547,-0.5697,-0.1653,0.1124
33.42,-0.7018,-0.0149,10.8436,-0.4709,0.1692,0.1327
33.44,-0.1735,-0.2758,12.2716,-0.2506,0.3939,0.0643
33.46,0.2624,-0.2783,12.8281,-0.0618,0.4912,0.0183
33.48,1.5149,0.1067,12.7299,0.2572,0.4883,-0.0793
33.5,1.5975,-0.4441,10.9857,0.5123,0.1868,-0.1104
33.52,1.6347,-0.2222,9.7767,0.6061,-0.1322,-0.162
33.54,1.1838,-0.2796,8.8881,0.5387,-0.3523,-0.1887
33.56,1.0458,-0.4088,9.0606,0.4354,-0.3721,-0.1515
33.58,0.6878,-0.1548,9.1595,0.2969,-0.3143,-0.0845
33.6,0.4696,-0.2051,8.9301,0.1274,-0.1114,-0.0661
33.62,0.2078,0.0676,9.4164,-0.0435,0.0374,-0.0726
33.64,0.1037,-0.119,9.3178,-0.1317,0.1318,-0.0298
33.66,0.1654,0.215,9.5823,-0.1097,0.1876,0.0263
33.68,0.1992,0.0066,10.149,-0.1066,0.0778,0.0314
33.7,0.3775,-0.048,10.1598,-0.0688,0.0055,0.0396
33.72,0.1685,-0.0561,9.8665,-0.0482,-0.008,0.0419
33.74,-0.1164,0.1591,9.7192,-0.0489,-0.0065,0.0156
33.76,0.1737,-0.4194,9.88,-0.0515,-0.0529,-0.0193
33.78,0.3381,-0.0557,10.2361,0.0079,0.0418,0.0477
33.8,0.4701,-0.2231,9.9822,0.0276,-0.037,0.0135
33.82,0.4325,-0.1297,10.1242,0.0583,-0.0256,-0.0396
33.84,0.32,-0.1368,9.7511,-0.0354,-0.0299,-0.0078
33.86,0.5687,0.0604,10.0613,0.0418,-0.0414,0.0149
33.88,0.4963,-0.2981,9.6401,0.0157,0.0507,-0.0246
33.9,0.5519,-0.0596,9.7183,0.1383,0.0385,0.0075
33.92,0.7341,0.1514,9.6993,0.1752,0.1369,0.0674
33.94,0.2515,-0.2474,9.4661,0.0939,0.1096,-0.0285
33.96,0.8371,-0.0211,9.5216,0.0474,0.0417,-0.0386
33.98,0.8269,-0.2892,9.3765,-0.0776,-0.0716,-0.046
34.0,0.1826,-0.2961,9.104,-0.2223,-0.2465,-0.144
34.02,-0.0541,-0.0389,8.9808,-0.3981,-0.3696,-0.1373
34.04,-0.1499,0.2148,9.3317,-0.4399,-0.3027,-0.1219
34.06,-0.7506,-0.1241,9.7227,-0.5061,-0.1562,-0.1341
34.08,-0.2652,0.0906,10.8308,-0.3881,0.07,-0.1131
34.1,-0.4957,-0.1219,11.4575,-0.2693,0.3071,-0.0872
34.12,0.376,0.2712,12.597,-0.0202,0.4063,-0.031
34.14,0.5943,0.1798,11.9012,0.2107,0.3594,0.0356
34.16,1.304,0.2186,10.8145,0.3587,0.1244,0.0373
34.18,1.4616,0.3009,10.0769,0.5459,-0.0732,0.121
34.2,0.9293,-0.2993,9.155,0.4305,-0.2828,0.0892
34.22,1.007,-0.2663,9.1458,0.4396,-0.3404,0.1169
34.24,0.5871,-0.0143,9.2605,0.1954,-0.2642,0.1415
34.26,0.4648,-0.1685,9.3965,0.0899,-0.1149,0.0332
34.28,0.5183,-0.1308,9.6349,-0.0122,0.0317,0.0444
34.3,0.4965,-0.3306,9.1203,-0.0556,0.087,-0.0132
34.32,0.3336,-0.3367,9.9049,-0.1244,0.1357,0.0641
34.34,0.2605,-0.0433,9.7384,-0.1535,0.0808,-0.0431
34.36,0.4501,0.1347,10.0684,-0.0425,0.0318,0.005
34.38,0.0397,-0.1823,9.9749,-0.081,0.0123,-0.064
34.4,0.1716,-0.344,9.969,-0.0233,-0.0409,-0.0454
34.42,0.0995,-0.0725,9.9282,-0.0049,-0.0144,-0.0161
34.44,0.2722,0.0704,9.9789,-0.0193,0.0192,-0.0024
34.46,0.525,-0.2106,9.79,-0.0558,-0.053,0.0023
34.48,0.7989,0.2891,9.612,0.0231,-0.0424,-0.0431
34.5,0.1174,0.0383,9.686,0.0143,-0.0387,-0.0597
34.52,0.0926,-0.1946,9.9815,0.0469,-0.0648,0.0076
34.54,0.7894,-0.3593,9.5663,0.0363,-0.0054,-0.0134
34.56,0.5579,-0.3533,9.9193,0.0751,-0.0135,-0.0313
34.58,0.685,-0.1407,9.5571,0.074,0.1099,-0.0427
34.6,0.4186,-0.3769,9.4003,0.133,0.1159,0.0192
34.62,0.341,-0.0237,9.5696,0.1694,0.1079,0.0168
34.64,0.408,0.0593,9.054,0.0593,0.0423,0.0401
34.66,0.1134,-0.162,8.9923,-0.0833,-0.1019,0.0192
34.68,-0.0102,-0.118,9.0789,-0.2583,-0.266,0.1357
34.7,-0.2993,-0.039,8.8247,-0.4113,-0.3613,0.1039
34.72,-0.5665,-0.2995,8.8265,-0.5167,-0.3562,0.1434
34.74,-0.7908,-0.2651,9.5579,-0.537,-0.1285,0.1218
34.76,-0.7801,-0.5695,10.6203,-0.4738,0.1595,0.1325
34.78,-0.2443,-0.3816,12.1021,-0.2881,0.3855,0.0415
34.8,0.122,-0.7639,12.5475,-0.0065,0.5053,-0.0279
34.82,0.8647,-0.2133,12.4701,0.3078,0.4325,-0.0608
34.84,1.3933,-0.673,10.473,0.4316,0.1303,-0.1552
34.86,1.3664,-0.3185,9.5994,0.58,-0.1421,-0.1053
34.88,1.2367,-0.1783,9.1668,0.5301,-0.2905,-0.113
34.9,0.7767,-0.1529,9.1696,0.4567,-0.3653,-0.1341
34.92,0.6349,-0.0982,8.8226,0.211,-0.2791,-0.1126
34.94,0.4833,0.2157,9.1561,0.092,-0.0928,-0.027
34.96,0.3037,-0.2052,9.1776,-0.0883,0.0402,-0.0169
34.98,0.0117,-0.2416,9.2153,-0.1231,0.1497,-0.0804
35.0,0.0782,-0.3144,9.4418,-0.1382,0.1146,0.0061
35.02,0.1557,-0.1802,9.5687,-0.1307,0.1049,0.057
35.04,0.0644,-0.3228,9.7724,-0.152,0.019,0.0036
35.06,0.2361,0.0751,9.9867,-0.0152,0.0492,0.0628
35.08,0.1734,-0.2038,9.7798,-0.0543,-0.0516,0.0324
35.1,0.3269,-0.1368,9.6788,-0.0294,-0.0514,0.0551
35.12,0.2257,-0.017,9.821,0.0077,-0.033,-0.007
35.14,-0.0312,-0.1762,9.2804,-0.0337,-0.0481,-0.0194
35.16,0.1727,-0.0625,9.7282,0.0114,-0.0138,0.0125
35.18,0.1406,-0.2645,9.8394,-0.0033,0.0154,0.0401
35.2,-0.045,-0.4082,9.8337,-0.0194,-0.0256,0.0085
35.22,-0.032,-0.405,9.9061,-0.0181,-0.0332,0.0144
35.24,0.5333,-0.3144,10.0956,0.0399,0.0297,0.0177
35.26,0.2594,-0.065,9.9127,0.0852,0.0273,-0.0114
35.28,-0.0426,-0.0448,9.8174,0.0425,-0.0357,-0.0217
35.3,0.195,-0.4669,9.7251,0.017,-0.0567,-0.0165
35.32,0.2043,0.2531,9.8256,0.0906,-0.0505,0.0344
35.34,0.6305,-0.2601,9.5736,0.1027,0.0284,0.0119
35.36,0.5381,-0.356,9.5426,0.1152,0.0879,0.005
35.38,0.2225,-0.4053,9.2407,0.149,0.1367,0.0142
35.4,0.4629,-0.2634,9.1786,0.1288,0.1695,-0.0339
35.42,0.1376,-0.4838,8.8269,-0.0434,-0.0343,-0.0929
35.44,0.2115,-0.4076,9.1487,-0.1422,-0.1197,-0.0969
35.46,0.1402,0.2572,9.1041,-0.2643,-0.3346,-0.1215
35.48,-0.5364,0.027,8.7462,-0.4997,-0.4376,-0.1512
35.5,-0.518,-0.3242,9.0539,-0.5816,-0.3352,-0.1471
35.52,-1.0004,0.1294,10.0108,-0.5349,-0.053,-0.1393
35.54,-0.8062,-0.1808,11.1458,-0.4586,0.214,-0.108
35.56,-0.0624,0.3079,12.9109,-0.1649,0.5266,-0.0158
35.58,0.7125,0.291,12.8785,0.1004,0.5635,0.0151
35.6,1.4223,0.1316,11.8589,0.3105,0.3811,0.106
35.62,1.3084,0.2401,10.3116,0.5198,0.0763,0.1217
35.64,1.4717,0.2202,9.3896,0.5956,-0.2057,0.1676
35.66,1.0513,-0.0038,8.8701,0.5429,-0.4583,0.1164
35.68,1.0146,-0.1456,8.9255,0.4482,-0.389,0.1472
35.7,0.2721,-0.2293,9.098,0.2657,-0.2638,0.1469
35.72,0.3035,-0.4817,9.423,0.0648,-0.0227,0.0754
35.74,0.5547,-0.3239,9.3778,-0.0088,0.1101,0.0523
35.76,0.3214,0.0172,9.383,-0.1561,0.115,0.0321
35.78,0.4776,0.0755,9.517,-0.1503,0.1435,-0.0274
35.8,0.0862,0.1216,9.7455,-0.135,0.1143,-0.0455
35.82,-0.2053,-0.1948,9.6985,-0.1033,0.0215,-0.0139
35.84,0.0882,-0.2795,9.8449,-0.0848,-0.1003,-0.0805
35.86,0.6668,-0.0425,9.9823,-0.0143,-0.0666,-0.0468
35.88,0.2088,-0.2065,10.18,0.0012,-0.0738,-0.0232
35.9,0.4542,-0.0714,10.1356,0.0162,-0.0592,-0.0686
35.92,0.3559,-0.1881,9.9688,0.1022,-0.0104,-0.0077
35.94,0.7636,0.0007,9.8784,0.166,0.0713,-0.0417
35.96,0.2233,0.0082,9.7031,0.1293,0.1412,-0.0031
35.98,0.7814,0.1179,9.7179,0.1621,0.11,0.0348
36.0,0.3914,0.1605,9.6999,0.0727,0.0257,-0.0003
36.02,0.5147,0.0273,9.4674,-0.0164,-0.0315,0.0648
36.04,0.1853,0.0856,9.2957,-0.1617,-0.2093,0.1092
36.06,-0.25,-0.2285,8.8657,-0.4062,-0.3886,0.0812
36.08,-0.3077,-0.3334,9.1032,-0.4521,-0.3394,0.1151
36.1,-0.3819,-0.0399,9.802,-0.4356,-0.1461,0.1204
36.12,-0.8259,-0.1726,10.7142,-0.4491,0.0683,0.124
36.14,-0.1499,-0.0284,11.6513,-0.2654,0.3437,0.0667
36.16,0.6359,-0.2459,12.6136,-0.0991,0.4461,0.0198
36.18,0.8565,-0.0605,12.4227,0.221,0.4123,-0.0414
36.2,1.176,-0.2257,11.3289,0.3601,0.2359,-0.1193
36.22,1.7393,-0.3298,10.0947,0.5368,-0.0921,-0.0941
36.24,1.357,-0.2792,9.5159,0.5203,-0.232,-0.1111
36.26,1.0814,-0.2213,9.4444,0.4339,-0.3399,-0.1197
36.28,0.5641,0.2591,9.4581,0.2781,-0.2606,-0.0485
36.3,0.6241,-0.2311,9.334,0.1151,-0.1364,-0.0474
36.32,0.4024,0.3032,9.806,0.0263,-0.0099,-0.0656
36.34,0.5036,0.0448,9.5734,-0.0773,0.1512,0.0332
36.36,0.4203,0.1944,9.7369,-0.1558,0.1241,-0.0437
36.38,0.1815,0.2128,9.5361,-0.1253,0.1205,0.021
36.4,0.7389,-0.1443,10.0384,-0.0832,0.0601,0.0445
36.42,0.2972,-0.0626,10.0104,-0.0262,-0.0072,0.0347
36.44,0.5072,0.2899,10.0343,-0.0097,0.0173,0.0035
36.46,0.2775,-0.3656,9.998,-0.0175,-0.0202,0.0159
36.48,0.5059,0.006,9.7651,0.0339,-0.007,0.0069
36.5,0.386,0.0207,10.2176,0.0548,-0.003,-0.0178
36.52,0.5275,0.0557,10.2952,0.0185,0.0136,0.0229
36.54,0.3525,-0.2121,9.9419,0.0279,0.0145,-0.0243
36.56,0.6697,0.0774,9.7597,0.0153,-0.0214,0.0109
36.58,0.3215,-0.1639,10.1837,0.0414,-0.0411,0.0162
36.6,0.2485,-0.4804,9.8356,0.0177,-0.0775,-0.0656
36.62,0.548,-0.4003,10.0196,0.0995,0.0335,0.041
36.64,0.9449,-0.0674,9.6519,0.1635,0.0663,0.0336
36.66,0.6123,0.0807,9.5894,0.1823,0.1407,0.0444
36.68,0.4698,-0.2978,9.5744,0.1813,0.1719,0.0315
36.7,0.5134,-0.077,8.9743,0.0976,0.1023,-0.0098
36.72,0.3214,-0.3128,8.9545,-0.0799,-0.0609,-0.0575
36.74,0.3716,-0.1974,8.9713,-0.1864,-0.2724,-0.1269
36.76,-0.0886,-0.011,8.8481,-0.4624,-0.4004,-0.1662
36.78,-0.4584,0.0241,8.8239,-0.5843,-0.4615,-0.2092
36.8,-0.82,-0.0389,9.6255,-0.571,-0.1767,-0.1241
36.82,-0.9125,0.282,10.7214,-0.5642,0.0821,-0.1108
36.84,-0.8383,-0.2155,12.0354,-0.3601,0.4451,-0.0702
36.86,0.1072,0.124,13.4827,-0.0253,0.5948,-0.0203
36.88,0.9517,0.1842,12.6134,0.2667,0.4966,0.1188
36.9,1.5667,0.1448,11.2331,0.492,0.2491,0.1013
36.92,1.1208,0.2795,9.9645,0.6379,-0.0913,0.1407
36.94,1.1905,-0.0639,8.964,0.6104,-0.3784,0.1789
36.96,1.1139,-0.3632,8.6555,0.5617,-0.442,0.1567
36.98,0.6444,-0.4978,8.7475,0.3331,-0.392,0.1273
37.0,0.1337,-0.2824,8.8908,0.1623,-0.1828,0.0863
37.02,0.3334,-0.3017,9.0372,-0.0057,0.0026,0.0411
37.04,0.0408,-0.1396,9.373,-0.0922,0.1523,0.0214
37.06,0.1242,-0.0788,9.3987,-0.1298,0.1741,-0.0163
37.08,-0.0805,-0.0357,9.243,-0.1483,0.0845,-0.0509
37.1,0.3163,-0.1718,9.8185,-0.0787,0.0572,0.0251
37.12,0.4432,-0.2468,9.8014,-0.0452,0.0274,-0.0468
37.14,0.4465,0.0876,10.0068,-0.045,-0.0524,-0.029
37.16,0.6202,-0.1828,9.9884,0.0383,-0.012,-0.003
37.18,0.1179,-0.1859,9.8551,0.049,-0.0127,-0.0215
37.2,0.2555,-0.3514,9.7929,0.0517,-0.0159,0.008
37.22,0.3477,-0.0802,9.7497,0.0377,0.0181,-0.0163
37.24,-0.0376,-0.2184,9.5904,0.007,-0.0423,-0.0029
37.26,0.2025,-0.1518,9.7432,0.019,0.052,0.0172
37.28,0.05,-0.1229,9.6898,0.0067,-0.0375,-0.031
37.3,0.1713,-0.3038,9.5172,-0.0367,-0.0539,-0.0615
37.32,0.4284,-0.1242,9.8882,0.0574,-0.0289,0.0082
37.34,0.184,-0.3719,9.9179,0.0353,-0.0377,-0.0341
37.36,0.2119,-0.2321,9.7654,0.1231,0.0106,-0.0126
37.38,0.4524,0.0002,9.8497,0.1241,0.0868,-0.0297
37.4,0.5556,-0.1847,9.5784,0.174,0.1366,-0.0145
37.42,0.0578,-0.1688,9.244,0.1341,0.0843,0.0021
37.44,0.5214,0.0519,9.3316,0.1788,0.1074,0.0036
37.46,0.2209,-0.3364,9.3809,0.0617,0.0616,0.069
37.48,0.156,-0.1083,8.9205,-0.0957,-0.1425,0.0905
37.5,-0.2545,0.0331,8.8507,-0.297,-0.3083,0.0499
37.52,-0.2707,-0.1153,8.6617,-0.4531,-0.3856,0.1332
37.54,-0.3678,-0.2166,9.3748,-0.486,-0.2477,0.1581
37.56,-0.8493,-0.2266,9.928,-0.4524,-0.0682,0.1152
37.58,-0.6317,-0.5363,11.149,-0.3637,0.2617,0.103
37.6,-0.4051,-0.1724,12.5512,-0.1627,0.4298,0.0481
37.62,0.6496,-0.4013,12.7245,0.132,0.4958,-0.0233
37.64,1.1999,-0.1869,12.0005,0.3804,0.3297,-0.0543
37.66,1.2032,-0.2796,10.2815,0.4782,0.0383,-0.0953
37.68,1.4494,-0.2106,9.3193,0.5622,-0.1468,-0.137
37.7,1.1116,-0.2287,9.0198,0.5313,-0.3351,-0.1315
37.72,0.6977,-0.1291,8.6501,0.3335,-0.3855,-0.076
37.74,0.5545,-0.0638,9.1625,0.2068,-0.2057,-0.1359
37.76,0.4808,-0.4169,9.0622,0.0796,-0.0597,-0.0672
37.78,-0.0036,-0.3199,9.1201,-0.0434,0.101,-0.0149
37.8,-0.2643,-0.4215,9.1137,-0.1709,0.1197,0.0058
37.82,0.157,-0.3554,9.4299,-0.1625,0.1258,0.0092
37.84,0.528,0.0156,9.7198,-0.1123,0.0971,0.0068
37.86,0.3611,-0.1313,10.0031,-0.0827,0.0432,-0.0032
37.88,0.0771,-0.3066,9.8074,-0.0666,-0.0008,-0.0319
37.9,0.2948,-0.0012,10.0261,-0.0062,-0.0461,0.0674
37.92,0.1553,-0.3543,9.5684,-0.0373,-0.0509,-0.0426
37.94,0.0176,-0.4672,9.6996,-0.0325,-0.0399,-0.0131
37.96,0.4619,-0.3935,9.7704,0.012,-0.0117,0.0057
37.98,0.2958,-0.2358,9.8085,0.0271,0.0128,0.027
38.0,0.4487,0.0653,10.1111,-0.0061,0.0194,0.0047
38.02,0.2346,-0.0197,10.16,0.0414,-0.0423,0.0481
38.04,0.2992,-0.22,9.7257,0.0084,-0.0495,0.0097
38.06,0.2989,-0.2043,9.7497,0.0501,-0.0398,0.0014
38.08,0.8961,0.0286,10.0542,0.0937,0.0212,0.0068
38.1,0.3972,-0.3747,9.5595,0.0882,-0.0236,-0.055
38.12,0.8596,-0.1663,9.683,0.1457,0.1094,0.0275
38.14,0.7523,-0.3213,9.7693,0.1627,0.1232,0.0189
38.16,0.2169,-0.1579,9.33,0.0454,0.0216,-0.025
38.18,0.5612,-0.0618,9.076,-0.065,-0.0772,-0.0659
38.2,0.1589,-0.0767,9.3296,-0.2127,-0.1838,-0.0933
38.22,0.2747,-0.3972,9.1301,-0.3346,-0.2922,-0.101
38.24,-0.3054,-0.1934,9.6602,-0.3733,-0.2817,-0.0675
38.26,-0.4997,-0.037,9.9799,-0.4215,-0.0934,-0.0852
38.28,-0.1554,0.0903,10.8463,-0.2926,0.1342,-0.0819
38.3,0.4235,0.0987,11.8049,-0.1831,0.3296,-0.0361
38.32,0.2284,0.0848,12.2457,-0.0259,0.3921,-0.0246
38.34,0.9007,0.3421,11.8525,0.2309,0.3577,0.0486
38.36,1.334,0.251,10.6339,0.3611,0.0988,0.1032
38.38,1.1965,0.2201,9.5922,0.4425,-0.1478,0.0692
38.4,0.8931,-0.0976,9.1154,0.3972,-0.2647,0.1021
38.42,0.8447,0.1247,9.4994,0.389,-0.248,0.1321
38.44,0.5004,-0.6328,8.9672,0.1355,-0.2467,0.0467
38.46,0.5293,-0.2202,9.2686,0.0909,-0.0615,0.0506
38.48,0.3904,-0.3707,9.5022,-0.0736,0.0412,0.05
38.5,0.5955,-0.2601,9.6449,-0.0942,0.1097,0.004
38.52,0.4406,-0.029,9.7322,-0.088,0.128,-0.0085
38.54,0.4375,-0.2179,9.6713,-0.156,0.0668,-0.009
38.56,0.268,-0.0805,9.8301,-0.0284,0.0414,-0.0033
38.58,0.4867,-0.3983,9.8347,-0.0292,-0.0001,-0.0057
38.6,0.6048,0.0304,10.3131,-0.0012,-0.0553,0.0044
38.62,0.7411,-0.2708,10.413,-0.0074,-0.0216,0.0082
38.64,0.7682,-0.2615,10.2492,0.0189,-0.0617,-0.0165
38.66,0.6046,-0.2404,9.9867,0.0369,-0.0332,-0.0136
38.68,0.9022,-0.1964,9.9247,0.1395,0.0453,-0.0594
38.7,1.165,0.1159,9.7913,0.1659,0.1537,-0.0235
38.72,0.44,-0.1622,9.3677,0.1414,0.1201,-0.0484
38.74,0.4297,-0.1058,9.6137,0.1163,0.1134,0.0329
38.76,0.559,0.309,9.5784,0.0996,0.0944,0.027
38.78,0.6048,-0.2792,9.3446,-0.0573,-0.0797,0.0668
38.8,0.377,-0.0702,9.0594,-0.2196,-0.2504,0.0817
38.82,0.0279,-0.1878,8.8194,-0.3741,-0.3685,0.0994
38.84,-0.0359,-0.225,9.4127,-0.4823,-0.3584,0.1766
38.86,-0.3179,-0.3611,9.2019,-0.5493,-0.1494,0.1162
38.88,-0.5397,-0.2622,10.8202,-0.3908,0.1553,0.1354
38.9,-0.0243,-0.4348,12.4451,-0.2754,0.3595,0.0681
38.92,0.5957,-0.57,12.7747,0.0218,0.4535,-0.0019
38.94,1.2634,0.1575,12.3336,0.2927,0.3914,-0.0528
38.96,1.3827,-0.7258,10.5619,0.4463,0.0781,-0.0886
38.98,1.5679,-0.4224,9.8436,0.5192,-0.1339,-0.1455
39.0,1.4054,-0.5074,9.2061,0.5368,-0.361,-0.126
39.02,1.0603,-0.2445,8.9985,0.3474,-0.3708,-0.1375
39.04,0.8015,0.2649,9.1691,0.2787,-0.2674,-0.0944
39.06,0.5265,-0.1962,9.2456,0.0968,-0.0754,-0.059
39.08,0.7179,-0.0859,9.2015,-0.0429,0.0708,-0.0546
39.1,0.8423,0.191,9.5725,-0.1308,0.1223,0.011
39.12,0.3508,-0.8266,9.649,-0.1538,0.1115,0.0025
39.14,0.4065,-0.099,9.4992,-0.1367,0.0781,-0.003
39.16,0.399,0.0292,9.9519,-0.0191,0.0299,-0.0056
39.18,-0.0464,-0.4078,9.9608,-0.0619,-0.0347,0.0236
39.2,0.5759,-0.3644,10.0409,-0.0131,-0.0383,0.0005
39.22,0.6886,-0.4482,10.049,-0.0317,-0.0019,0.0161
39.24,0.3747,-0.0788,9.791,-0.0195,-0.0274,0.0077
39.26,0.161,-0.4453,9.4971,-0.072,-0.0232,-0.0212
39.28,0.3399,-0.3369,9.6123,0.0146,-0.0357,-0.0142
39.3,0.3832,-0.3055,9.9486,-0.0007,-0.0224,-0.0347
39.32,0.527,-0.2491,9.9179,-0.0039,0.0474,0.0271
39.34,0.3927,-0.0994,9.8512,-0.0011,-0.027,-0.0521
39.36,-0.0385,-0.3491,9.5791,-0.0142,-0.0124,0.024
39.38,0.2553,-0.5238,9.741,-0.0185,-0.067,0.0159
39.4,0.1185,-0.4739,9.6422,-0.026,-0.0603,0.0085
39.42,0.8823,-0.3447,9.8387,0.0134,-0.0751,-0.0335
39.44,0.3605,-0.3013,10.0925,0.0903,-0.0153,0.0479
39.46,0.8559,-0.3924,9.5163,0.1481,0.0217,0.008
39.48,0.5708,-0.3208,9.4586,0.1141,0.082,0.0371
39.5,0.358,-0.1901,9.2901,0.1362,0.1439,0.0543
39.52,0.516,-0.3587,8.7551,0.1167,0.1148,0.0007
39.54,0.0704,-0.7386,8.8297,0.0638,0.0425,-0.0149
39.56,0.4253,-0.3757,9.0401,-0.061,-0.1219,-0.0827
39.58,0.4423,-0.6163,8.6544,-0.3361,-0.3284,-0.132
39.6,-0.1177,-0.3155,8.7266,-0.4043,-0.4342,-0.1429
39.62,-0.7288,-0.036,8.6084,-0.5739,-0.4107,-0.1692
39.64,-0.5569,0.0786,9.842,-0.59,-0.1489,-0.0955
39.66,-1.2121,-0.6133,10.6945,-0.499,0.1517,-0.1617
39.68,-0.0545,0.1762,13.008,-0.2831,0.4984,-0.0482
39.7,0.3092,0.3674,13.3307,0.0104,0.5874,0.0412
39.72,1.0842,-0.2607,12.5533,0.3259,0.516,0.0608
39.74,1.7605,0.3311,11.0706,0.5556,0.1954,0.1187
39.76,1.5986,-0.2307,9.2564,0.6135,-0.1532,0.1523
39.78,1.1323,-0.2968,8.4081,0.6214,-0.4203,0.1506
39.8,0.9783,-0.2174,8.6623,0.4863,-0.4648,0.1607
39.82,0.7458,-0.6128,8.4502,0.3292,-0.3599,0.1151
39.84,0.4681,-0.4482,8.8658,0.1127,-0.0956,0.0987
39.86,0.6448,-0.2979,9.2353,-0.0715,0.057,0.0559
39.88,0.3683,-0.3146,8.8604,-0.1327,0.1543,0.0014
39.9,0.0228,-0.2727,9.3338,-0.1511,0.1742,-0.038
39.92,0.078,-0.758,9.2351,-0.1421,0.1035,-0.0226
39.94,0.0682,-0.5753,9.5768,-0.1055,-0.0019,-0.0345
39.96,0.3963,-0.3954,9.865,-0.0621,-0.0379,0.0259
39.98,0.3803,-0.427,10.1522,-0.0131,-0.0459,0.0196
40.0,0.1607,-0.4286,9.8453,0.0105,-0.0272,0.0128
40.02,0.3309,-0.1471,9.4036,0.0029,-0.0332,0.0034
40.04,0.0765,-0.5769,9.7807,0.0463,0.0133,0.0423
40.06,0.1283,-0.4932,9.6332,-0.0007,-0.0146,0.007
40.08,0.6577,-0.1444,9.7396,0.0224,0.0076,0.0051
40.1,0.3063,-0.5029,9.681,-0.0309,-0.0118,-0.0131
40.12,0.3705,-0.384,9.919,0.0332,0.0194,0.0194
40.14,0.1622,-0.1592,9.5746,-0.0287,-0.0224,0.0021
40.16,0.5846,-0.4102,9.7523,-0.0034,-0.0065,-0.0134
40.18,0.1807,-0.2683,9.7004,-0.0047,-0.0635,-0.0618
40.2,0.0234,-0.7401,9.4005,-0.021,-0.0222,-0.0296
40.22,0.2752,0.0238,9.585,-0.038,-0.0537,0.0025
40.24,1.0072,-0.2032,10.2028,0.0354,-0.0062,0.02
40.26,0.5089,-0.146,10.2932,0.0497,0.0218,-0.0069
40.28,0.5861,-0.3951,10.0586,0.0616,0.0011,0.0057
40.3,0.5107,-0.3678,9.8097,0.0818,-0.0187,0.0048
40.32,0.6626,0.1804,10.0501,0.1427,0.0556,-0.0208
40.34,0.0549,-0.7124,8.8689,0.0237,0.058,-0.0312
40.36,0.7388,-0.2903,9.154,0.1143,0.0749,0.0322
40.38,0.4551,-0.0695,9.7087,0.0855,0.1091,0.0205
40.4,0.9672,0.2146,9.6055,0.0342,0.0226,0.0687
40.42,-0.3305,-0.7519,7.9648,-0.2741,-0.2384,0.1149
40.44,0.0589,-0.1726,9.0265,-0.2923,-0.3194,0.1074
40.46,-0.1355,0.032,9.3439,-0.4136,-0.3089,0.1394
40.48,-0.5308,-0.5325,9.0861,-0.5132,-0.2465,0.1177
40.5,-0.4583,-0.265,10.4006,-0.4153,-0.0012,0.1168
40.52,-0.5632,-0.5666,11.5553,-0.3461,0.262,0.0708
40.54,0.1715,-0.3949,12.5443,-0.0828,0.444,0.0281
40.56,1.0968,-0.5146,13.0134,0.1969,0.4744,-0.005
40.58,1.3392,-0.8981,11.3246,0.3444,0.2521,-0.0724
40.6,1.3864,-0.316,10.1035,0.5013,-0.0168,-0.0955
40.62,1.2843,-0.5708,8.7649,0.4737,-0.2398,-0.1493
40.64,0.774,-0.5876,8.4935,0.3902,-0.3821,-0.1159
40.66,0.2081,-0.6123,8.4089,0.2002,-0.3725,-0.1061
40.68,1.0911,0.4662,9.7004,0.2187,-0.1512,-0.0617
40.7,0.5554,0.053,9.4913,0.031,-0.0474,-0.1323
40.72,0.5431,0.0967,9.7153,-0.0486,0.1184,0.0348
40.74,0.268,0.0212,9.4139,-0.1433,0.1154,-0.0281
40.76,0.169,0.2067,9.6861,-0.111,0.0793,0.0121
40.78,-0.0347,-0.6709,9.4451,-0.1367,0.015,0.0327
40.8,0.1866,-0.6896,9.8878,-0.0974,-0.0449,0.0016
40.82,0.6766,-0.0322,10.2151,0.0048,-0.0211,0.0109
40.84,0.5694,0.051,10.3259,0.024,-0.0077,0.0336
40.86,0.9952,-0.1728,10.0821,0.0293,-0.0183,0.015
40.88,0.6893,-0.3925,9.9203,0.0171,0.0482,0.0068
40.9,0.3317,-0.3588,9.8432,0.0649,-0.0118,-0.0012
40.92,0.4275,0.103,9.8269,0.0466,0.0012,0.0303
40.94,0.5362,-0.4608,9.8359,-0.0065,-0.1131,-0.0195
40.96,0.4253,-0.2995,9.994,0.0613,-0.0596,0.0141
40.98,0.7305,0.0226,10.0009,0.0618,-0.0103,0.0207
41.0,0.7367,-0.168,10.2017,0.1343,0.0493,0.0309
41.02,0.6725,-0.4371,9.5114,0.121,0.0729,0.0026
41.04,0.4956,-0.3251,9.6389,0.141,0.0921,0.001
41.06,0.4848,-0.383,9.1926,0.0635,0.1021,-0.0023
41.08,0.9335,-0.2735,9.5864,0.1155,0.0575,0.0033
41.1,0.4835,-0.0363,9.3589,-0.0613,-0.0859,-0.0795
41.12,0.2842,-0.2807,8.9646,-0.219,-0.2936,-0.0935
41.14,0.0274,-0.5905,8.8237,-0.4046,-0.3583,-0.1598
41.16,-0.101,-0.416,9.0906,-0.4629,-0.3426,-0.1676
41.18,-0.8375,0.0482,9.6955,-0.5109,-0.1345,-0.1555
41.2,-0.9431,-0.0455,10.5521,-0.49,0.1153,-0.109
41.22,0.0082,0.3434,12.2152,-0.1995,0.3804,-0.0143
41.24,0.7049,0.3435,13.0587,0.0839,0.4804,0.0279
41.26,1.438,0.5062,12.4715,0.3202,0.3907,0.0723
41.28,1.4682,-0.0769,11.127,0.4321,0.1438,0.0843
41.3,1.4716,0.1523,9.6466,0.5088,-0.1093,0.1567
41.32,1.3344,-0.3087,9.0589,0.5154,-0.3462,0.1223
41.34,1.1658,-0.2984,9.1425,0.404,-0.4036,0.1352
41.36,0.4611,-0.4229,8.91,0.2586,-0.2777,0.1033
41.38,0.5306,-0.3549,9.1708,0.0766,-0.0828,0.0698
41.4,0.6647,-0.1376,9.2378,-0.0441,0.0173,0.0683
41.42,0.3205,-0.1336,9.0825,-0.1375,0.1063,-0.0264
41.44,0.0843,-0.2793,9.3949,-0.1468,0.1412,0.0099
41.46,0.2366,-0.4423,9.7692,-0.1032,0.1023,-0.0323
41.48,0.1964,-0.5927,9.5783,-0.1222,-0.0135,-0.023
41.5,0.4118,-0.2792,9.9741,-0.0495,-0.0316,-0.0573
41.52,0.2477,-0.3918,10.0006,-0.035,-0.0309,0.0219
41.54,0.5906,-0.3016,9.8352,-0.0059,-0.0334,-0.0251
41.56,0.3413,-0.1729,9.7555,-0.0463,-0.036,-0.0222
41.58,0.468,-0.1635,9.7766,0.0388,-0.0449,0.0353
41.6,0.7241,-0.2278,9.949,0.0376,0.0335,-0.0454
41.62,0.3381,-0.2697,10.1153,0.0794,-0.0083,0.0121
41.64,0.4583,-0.4232,10.0885,0.0311,-0.0337,-0.0085
41.66,0.6893,-0.3171,10.0244,0.0196,-0.0382,-0.0212
41.68,0.5883,0.0059,9.9922,0.0419,-0.0258,0.0033
41.7,0.5152,-0.0666,9.6172,0.0614,-0.0026,-0.0117
41.72,0.3307,-0.2546,9.4267,0.1156,0.0337,0.0238
41.74,0.4108,-0.369,9.2758,0.1479,0.0778,-0.0286
41.76,0.8134,-0.4075,9.1709,0.1329,0.0907,-0.0185
41.78,0.1638,-0.1142,8.9942,0.0852,0.1278,0.0119
41.8,0.2826,-0.2661,8.9439,0.0429,-0.0029,0.0186
41.82,0.4392,0.1451,9.2918,-0.0359,-0.061,0.0585
41.84,0.3432,-0.4243,8.6634,-0.2213,-0.2638,0.082
41.86,-0.113,-0.1203,9.1898,-0.3114,-0.345,0.1318
41.88,-0.2992,-0.2269,8.7597,-0.4082,-0.3548,0.1338
41.9,-0.9718,-0.4252,9.3811,-0.5256,-0.1867,0.1571
41.92,-0.691,-0.272,10.5557,-0.3871,0.1307,0.0911
41.94,-0.3725,-0.7508,11.7759,-0.2691,0.3422,0.0604
41.96,0.2547,-0.8496,12.6062,-0.061,0.4613,-0.0206
41.98,0.7605,-0.6983,11.9379,0.1994,0.409,-0.0765
42.0,1.3957,-0.3822,11.0391,0.4455,0.1618,-0.0753
42.02,1.4647,-0.54,9.7836,0.5268,-0.1031,-0.1411
42.04,1.2916,-0.4787,9.2555,0.5257,-0.2599,-0.1112
42.06,1.0785,-0.1742,8.8333,0.4294,-0.3542,-0.1451
42.08,0.2885,-0.4747,8.5752,0.2692,-0.3031,-0.1076
42.1,0.4076,-0.4946,8.8552,0.0584,-0.0907,-0.1031
42.12,0.2262,-0.3118,8.8446,-0.0854,-0.0058,-0.0475
42.14,0.7194,-0.0414,9.377,-0.1066,0.1584,0.0131
42.16,0.387,-0.1017,9.5497,-0.1552,0.1371,0.012
42.18,-0.0104,-0.0576,9.5505,-0.1116,0.0686,0.0165
42.2,0.5537,-0.0611,9.8215,-0.0576,0.0618,0.0672
42.22,0.1195,-0.074,9.9493,-0.0343,-0.0042,0.0265
42.24,0.2099,-0.5591,9.9419,-0.017,0.0056,-0.0095
42.26,0.478,-0.2323,9.9089,-0.0007,-0.0411,0.0312
42.28,0.4176,-0.4234,9.6174,0.0045,0.0021,-0.0084
42.3,0.558,-0.5288,9.4916,0.0082,-0.0317,0.0027
42.32,0.3251,-0.5289,9.8125,0.0519,-0.0004,0.04
42.34,0.5707,-0.597,9.9586,0.0053,0.0021,-0.033
42.36,0.4563,-0.3264,9.7982,-0.039,-0.0082,0.0006
42.38,0.5188,-0.1368,9.8128,0.0285,-0.0716,-0.0091
42.4,0.3813,-0.4136,10.0653,0.0559,-0.0188,0.045
42.42,0.603,-0.297,9.5364,0.071,0.0094,-0.0149
42.44,0.5428,-0.2328,9.7413,0.1282,0.0218,0.0467
42.46,0.725,-0.4164,9.2406,0.1794,0.0933,0.008
42.48,0.3333,-0.6277,9.0758,0.1449,0.1206,0.0073
42.5,0.6966,-0.3522,9.0308,0.147,0.1237,-0.0141
42.52,0.469,-0.7147,8.9968,0.0907,0.0713,-0.0582
42.54,0.1759,-0.597,8.9325,-0.0394,-0.0791,-0.0915
42.56,0.143,-0.2075,8.864,-0.2207,-0.2579,-0.0842
42.58,-0.1513,-0.1246,8.6422,-0.4444,-0.4385,-0.1238
42.6,-0.6498,-0.3694,8.6305,-0.5974,-0.4142,-0.1987
42.62,-0.6519,0.1302,9.4162,-0.6118,-0.1803,-0.1947
42.64,-1.0762,-0.0497,10.8369,-0.5225,0.1213,-0.1387
42.66,-0.2523,0.4251,12.5517,-0.3058,0.482,-0.0731
42.68,-0.0148,-0.3434,13.3288,-0.0384,0.5542,0.0317
42.7,1.302,0.3249,13.0223,0.2526,0.5449,0.0986
42.72,1.2832,-0.0302,11.0362,0.5075,0.2081,0.1374
42.74,2.3252,0.414,10.2828,0.7058,-0.0237,0.1718
42.76,1.7127,-0.2919,9.0957,0.6689,-0.3675,0.1629
42.78,0.7689,-0.4278,8.5339,0.5135,-0.4666,0.1614
42.8,0.766,-0.322,8.7515,0.3368,-0.3496,0.1207
42.82,0.9229,-0.2079,8.8838,0.1384,-0.1202,0.109
42.84,0.705,-0.5709,9.1153,0.0129,0.0374,0.0878
42.86,0.2559,-0.5705,9.1018,-0.1193,0.1239,-0.0075
42.88,-0.3488,-0.242,9.213,-0.1842,0.0933,-0.0429
42.9,0.0419,-0.4305,9.5092,-0.1888,0.1316,0.0302
42.92,0.2742,-0.3307,9.7939,-0.1105,0.0235,-0.0598
42.94,0.1415,-0.1128,9.6895,-0.0904,-0.0297,-0.0696
42.96,0.1111,-0.3687,9.8717,-0.0796,-0.0338,-0.0027
42.98,0.5767,-0.0166,10.3156,0.0233,-0.0418,-0.0203
43.0,0.3773,-0.6248,9.784,0.0272,-0.0305,-0.0336
43.02,0.6785,-0.2895,10.105,0.0699,-0.0111,-0.0383
43.04,0.2227,-0.659,9.606,-0.0268,-0.0397,-0.0331
43.06,0.5489,-0.4181,9.7288,0.0114,0.0184,0.0234
43.08,0.515,-0.3825,9.8499,0.0187,0.0168,-0.0173
43.1,0.7945,0.0116,10.1147,0.0446,0.0395,0.0577
43.12,0.2932,-0.3942,9.5352,-0.0468,-0.0415,-0.0239
43.14,0.4994,-0.0872,9.7858,0.0277,0.0179,-0.0096
43.16,0.655,-0.3043,10.0696,0.0022,0.0363,-0.0268
43.18,0.6334,-0.7753,9.5897,-0.0262,-0.0236,0.011
43.2,0.7768,0.0488,10.1809,0.0651,-0.009,-0.0129
43.22,0.9178,0.2263,10.4139,0.0664,-0.0216,0.0068
43.24,0.9601,-0.0116,10.356,0.1,0.0254,-0.0267
43.26,0.8427,-0.1401,9.9068,0.0917,0.0319,-0.0231
43.28,0.5229,-0.0983,9.9061,0.1214,0.0503,-0.022
43.3,0.7876,0.2682,9.5999,0.1423,0.1456,-0.0774
43.32,0.5709,-0.0741,9.3709,0.1663,0.1338,-0.0149
43.34,0.8294,-0.2939,8.9903,0.1042,0.0502,0.0266
43.36,0.6632,0.0838,9.1444,-0.052,-0.033,0.1075
43.38,0.4013,0.304,9.0483,-0.2162,-0.2646,0.1197
43.4,0.0366,-0.1735,8.787,-0.4371,-0.4444,0.1636
43.42,-0.2024,0.0494,9.0263,-0.5151,-0.3352,0.1896
43.44,-0.6732,-0.4946,9.4145,-0.6586,-0.2051,0.1435
43.46,-0.8948,-0.5347,10.5562,-0.558,0.139,0.1425
43.48,-0.2595,-0.2673,12.2771,-0.3661,0.3845,0.1029
43.5,0.4718,-0.6633,13.7757,-0.0475,0.551,0.0128
43.52,0.8108,-0.7062,12.5241,0.2118,0.5058,-0.0427
43.54,2.082,-0.5616,11.6548,0.4579,0.2644,-0.1472
43.56,1.8571,-0.4372,10.0635,0.6581,-0.1024,-0.1645
43.58,1.738,-0.1283,9.1429,0.6368,-0.3131,-0.2002
43.6,1.005,-0.3963,8.9632,0.5644,-0.4186,-0.1614
43.62,0.9571,-0.0058,8.8583,0.3443,-0.3666,-0.1279
43.64,0.3027,0.0365,8.6655,0.1372,-0.1822,-0.1251
43.66,0.1272,0.5291,9.2747,-0.014,0.0163,-0.0202
43.68,0.4217,-0.0729,9.6266,-0.1144,0.1526,0.0184
43.7,0.0886,-0.0625,9.2934,-0.2003,0.1166,-0.0194
43.72,0.1844,-0.1377,9.7335,-0.1478,0.131,0.0422
43.74,0.2554,-0.1523,9.3909,-0.0883,0.0801,0.0491
43.76,0.2332,-0.4215,9.732,-0.0764,-0.0259,0.0087
43.78,0.1524,-0.434,9.8405,-0.0435,-0.0482,-0.0289
43.8,0.2938,-0.1896,9.9086,-0.0122,-0.066,0.0091
43.82,0.691,-0.095,10.6057,0.0798,0.0088,0.0541
43.84,0.3045,-0.0285,10.0685,-0.0143,-0.085,-0.0289
43.86,0.8501,-0.3744,9.8664,0.0282,-0.0278,0.0401
43.88,0.4433,-0.5919,9.8417,0.0562,-0.0629,0.0245
43.9,0.7905,-0.2581,9.9608,0.1011,0.0222,0.0034
43.92,0.9373,-0.0546,9.522,0.1589,0.065,0.0142
43.94,0.7295,-0.5646,9.488,0.2313,0.167,0.0384
43.96,0.7545,-0.4459,9.3651,0.1699,0.218,0.0105
43.98,0.5568,-0.4727,9.1348,0.0676,0.0749,-0.0543
44.0,0.4234,-0.2032,9.2597,-0.0606,-0.0881,-0.077
44.02,0.5618,0.0163,9.5481,-0.198,-0.2594,-0.0936
44.04,0.2296,-0.3441,9.1172,-0.4567,-0.4416,-0.1403
44.06,-0.5298,-0.2287,8.7112,-0.6195,-0.3958,-0.1608
44.08,-0.7562,0.3559,9.6397,-0.5642,-0.1717,-0.1497
44.1,-0.7284,0.263,10.9331,-0.496,0.1848,-0.1155
44.12,-0.7015,-0.0476,12.2426,-0.3532,0.4395,-0.0902
44.14,0.7132,0.3191,13.7433,0.0205,0.5978,0.0245
44.16,0.8697,-0.2831,12.3873,0.3349,0.527,0.0608
44.18,2.0652,0.1736,10.8442,0.5647,0.2,0.0959
44.2,1.5678,-0.0582,9.4788,0.6177,-0.1187,0.1119
44.22,1.1366,-0.7351,8.7204,0.6023,-0.3825,0.1246
44.24,0.6077,-0.6791,8.5011,0.4935,-0.4781,0.1265
44.26,0.4645,-0.3648,8.9304,0.3066,-0.2881,0.0897
44.28,0.6229,-0.4222,8.8999,0.1092,-0.0828,0.0855
44.3,0.1495,-0.8948,8.9141,-0.0758,0.0569,0.0798
44.32,0.3541,-0.3488,9.1155,-0.1651,0.2069,0.0113
44.34,0.5383,-0.0767,9.5608,-0.1197,0.1797,0.0118
44.36,-0.277,-0.6525,9.3126,-0.1373,0.0915,-0.0065
44.38,-0.0816,-0.1714,9.5082,-0.0927,0.049,-0.0119
44.4,-0.1729,-0.1856,9.3724,-0.0814,-0.0087,0.0154
44.42,0.0836,-0.2638,9.6083,-0.0822,-0.0432,-0.051
44.44,0.0326,-0.1541,9.7318,0.0518,-0.0157,-0.0245
44.46,0.2399,-0.2755,9.6529,0.0307,-0.0292,-0.0217
44.48,0.7435,-0.2403,9.7372,0.0174,0.0195,-0.0192
44.5,0.5341,-0.3856,9.4329,-0.018,0.0293,-0.0578
44.52,0.3429,0.0009,9.9431,0.0373,0.0004,-0.0172
44.54,0.4919,-0.2727,10.0044,0.0656,0.0176,-0.0179
44.56,0.2101,-0.2379,9.7699,0.0504,0.0554,-0.0175
44.58,0.3924,-0.1851,9.5389,0.0993,0.0544,-0.0547
44.6,0.6526,-0.2896,9.4533,0.0984,0.0271,-0.0514
44.62,0.6136,-0.0627,9.3362,0.1214,0.1262,-0.0098
44.64,0.4377,-0.3425,9.376,0.1846,0.1881,0.0374
44.66,0.2854,0.0152,8.9514,0.1144,0.076,-0.015
44.68,0.2597,-0.3639,9.2763,-0.0326,-0.0348,0.082
44.7,0.093,-0.2311,9.0796,-0.1539,-0.1629,0.0876
44.72,-0.1829,-0.0449,8.9537,-0.3208,-0.3001,0.1359
44.74,-0.0062,-0.3507,9.0324,-0.446,-0.314,0.151
44.76,-1.0962,-0.6621,9.0372,-0.5593,-0.248,0.0812
44.78,-0.8466,-0.2647,9.8436,-0.4689,0.0548,0.1756
44.8,-0.7911,-0.6451,11.3272,-0.3374,0.2545,0.0361
44.82,-0.2181,-0.8443,12.4558,-0.1317,0.4876,-0.0154
44.84,0.8137,-0.3003,12.8164,0.209,0.4673,0.0131
44.86,1.3478,-0.9094,10.9135,0.3979,0.2172,-0.1216
44.88,1.325,-0.224,9.9036,0.5174,0.0093,-0.1433
44.9,0.7622,-0.699,8.784,0.499,-0.28,-0.1462
44.92,0.9394,-0.5016,8.6924,0.4403,-0.3915,-0.1457
44.94,0.4955,-0.5275,8.6247,0.2736,-0.3557,-0.128
44.96,0.6181,-0.5783,8.8979,0.135,-0.1412,-0.05
44.98,0.3786,-0.3162,8.8294,-0.0116,0.0289,-0.0317
45.0,0.0888,-0.0758,9.0607,-0.1562,0.0816,-0.0201
45.02,0.2334,-0.4108,9.2574,-0.1217,0.108,0.0084
45.04,0.0734,-0.0637,9.4205,-0.1248,0.0681,0.0105
45.06,-0.0898,-0.3454,9.6972,-0.0898,0.0318,-0.0046
45.08,0.1168,-0.2764,9.4845,-0.0368,-0.0528,-0.0409
45.1,0.2975,-0.307,10.0258,-0.0243,0.0017,0.0472
45.12,0.2146,-0.565,10.0167,0.0029,0.0126,0.0138
45.14,0.0839,-0.4633,9.6514,-0.004,-0.0405,0.0135
45.16,0.3773,-0.5005,9.915,0.0167,0.0115,-0.0329
45.18,0.3288,-0.4524,9.5418,-0.011,-0.0312,-0.0405
45.2,-0.1653,-0.0312,9.5021,-0.0301,-0.0182,-0.0044
45.22,0.4635,-0.6165,9.7521,0.019,-0.0016,-0.0132
45.24,0.5073,-0.5798,9.7052,-0.0025,-0.0193,-0.0065
45.26,0.1943,-0.4224,9.6244,-0.0191,0.0134,0.007
45.28,0.0995,-0.4384,9.4596,-0.0328,0.0206,-0.0218
45.3,0.0814,-0.6363,9.3746,-0.0389,-0.0226,-0.0272
45.32,0.3283,-0.2743,9.7281,-0.0145,-0.0198,-0.0283
45.34,0.4516,-0.2538,9.7393,0.0614,0.0218,0.0308
45.36,0.5785,0.188,9.9536,-0.0204,-0.0096,-0.0149
45.38,0.2961,-0.2403,9.9605,-0.0037,0.0081,-0.0361
45.4,0.6971,-0.1453,9.9601,0.0482,0.0467,0.0269
45.42,0.5563,-0.0345,9.9152,0.0498,0.0204,0.0046
45.44,0.4472,-0.1399,9.5018,-0.0214,-0.0248,-0.0006
45.46,0.6854,-0.15,9.9916,0.0212,0.0318,0.0083
45.48,0.3703,-0.3194,9.783,-0.0128,-0.0244,0.0023
45.5,0.4165,-0.2523,9.8574,-0.0106,0.002,-0.0386
45.52,0.7141,-0.2032,9.8459,0.022,0.033,0.0021
45.54,0.7929,0.0142,9.9254,0.0279,0.052,0.0183
45.56,0.6147,-0.3068,10.122,0.0378,0.0472,-0.0187
45.58,0.7345,0.2373,10.0041,0.0378,0.0038,-0.0422
45.6,0.5201,-0.2959,9.779,-0.0193,0.0088,0.0023
45.62,0.5794,-0.1549,10.1909,-0.0008,0.0047,0.0178
45.64,0.3759,-0.3025,9.8171,0.0023,-0.0065,0.0162
45.66,0.5567,0.0615,10.0826,0.041,0.0263,0.031
45.68,0.3508,-0.3417,9.6606,-0.0174,-0.0017,-0.0317
45.7,0.5961,-0.1741,10.051,0.0218,0.0256,0.0094
45.72,0.5805,0.0475,10.1239,0.0068,0.0085,0.0284
45.74,0.5494,-0.2591,9.7642,-0.0138,-0.0181,-0.0105
45.76,0.8161,-0.0017,10.1897,0.0334,0.0147,0.0209
45.78,0.6462,0.0055,9.9651,0.0393,0.0261,0.0146
45.8,0.728,-0.179,10.0264,0.0231,0.0208,-0.0155
45.82,0.4182,-0.1481,9.9547,0.0113,0.0045,0.0307
45.84,0.462,-0.0081,9.8942,0.0067,0.0048,-0.0106
45.86,0.6861,0.0421,10.115,0.0428,0.008,0.0234
45.88,0.3895,-0.1835,9.9091,-0.0016,-0.0062,0.0002
45.9,0.6449,-0.0521,9.9986,0.0249,-0.0075,0.0
45.92,0.4643,-0.044,9.9079,-0.0049,0.0066,0.0118
45.94,0.4527,-0.2124,10.042,0.0228,0.0153,0.0081
45.96,0.4449,-0.1203,9.9881,0.0077,0.006,-0.0076
45.98,0.5535,-0.2578,9.8734,0.0227,0.0214,-0.0041
46.0,0.5437,-0.1717,9.7878,0.0068,0.0215,0.0015
46.02,0.3824,-0.3196,9.6916,0.0157,0.0112,0.0008
46.04,0.4892,-0.0979,9.8166,0.0103,0.0138,0.0098
46.06,0.345,-0.4357,9.6835,-0.0276,-0.0302,-0.0238
46.08,0.4007,-0.1961,9.7199,-0.0037,-0.0067,-0.0083
46.1,0.4438,-0.2266,9.7582,-0.0016,0.0022,-0.0007
46.12,0.3952,-0.3913,9.5022,-0.0155,-0.0143,-0.009
46.14,0.4003,-0.2491,9.7951,0.0043,0.0036,0.0036
46.16,0.6181,-0.1429,9.8189,0.0071,0.0017,-0.0028
46.18,0.7594,-0.0348,9.9827,0.0446,0.0323,0.0221
46.2,0.3532,-0.2918,9.5722,-0.0168,-0.0116,-0.0136
46.22,0.6146,-0.1844,9.9784,0.035,0.0282,0.0164
46.24,0.3581,-0.3072,9.6342,-0.0132,-0.0128,-0.0085
46.26,0.4145,-0.1596,9.9145,0.0297,0.0199,0.0124
46.28,0.5308,-0.2424,9.8771,0.0044,0.0046,0.0022
46.3,0.6442,-0.2826,9.8931,0.0145,0.011,0.0068
46.32,0.4342,-0.2763,9.6314,-0.0044,-0.0035,-0.0026
46.34,0.3905,-0.4351,9.6203,-0.0196,-0.0147,-0.0098
46.36,0.6253,-0.189,9.8692,0.0269,0.0202,0.0135
46.38,0.3318,-0.3259,9.648,-0.0257,-0.0193,-0.0128
46.4,0.5183,-0.1628,9.848,0.0168,0.0126,0.0084
46.42,0.5381,-0.168,9.8376,0.0155,0.0116,0.0078
46.44,0.473,-0.0884,9.7583,0.0113,0.0085,0.0056
46.46,0.5571,-0.182,9.94,0.0197,0.0148,0.0099
46.48,0.3764,-0.2646,9.6694,-0.0132,-0.0099,-0.0066
46.5,0.5501,-0.0414,9.9368,0.0254,0.0191,0.0127
46.52,0.2727,-0.3654,9.5143,-0.0416,-0.0312,-0.0208
46.54,0.3068,-0.403,9.5378,-0.0361,-0.0271,-0.0181
46.56,0.4449,-0.1453,9.8339,0.0138,0.0104,0.0069
46.58,0.4441,-0.2084,9.8028,0.0026,0.0019,0.0013
46.6,0.6168,-0.226,9.7971,0.0091,0.0068,0.0045
46.62,0.4216,-0.1969,9.892,0.0102,0.0077,0.0051
46.64,0.5211,-0.1991,9.8643,-0.0004,-0.0003,-0.0002
46.66,0.4946,-0.2237,9.8151,0.0077,0.0058,0.0038
46.68,0.4067,-0.187,9.6706,-0.0104,-0.0078,-0.0052
46.7,0.2789,-0.4432,9.5497,-0.0451,-0.0338,-0.0226
46.72,0.2499,-0.3053,9.6849,-0.021,-0.0158,-0.0105
46.74,0.6062,-0.3209,9.7561,-0.0007,-0.0005,-0.0003
46.76,0.4676,-0.3728,9.7899,0.0033,0.0025,0.0017
46.78,0.2143,-0.307,9.5455,-0.026,-0.0195,-0.013
46.8,0.4378,-0.3132,9.7829,-0.0043,-0.0032,-0.0021
46.82,0.6568,0.0151,10.1695,0.0503,0.0377,0.0251
46.84,0.4382,-0.2367,9.7499,-0.0044,-0.0033,-0.0022
46.86,0.4124,-0.2312,9.7203,-0.0083,-0.0062,-0.0042
46.88,0.4263,-0.1717,9.8037,-0.0018,-0.0013,-0.0009
46.9,0.572,-0.0818,9.8369,0.0032,0.0024,0.0016
46.92,0.4552,-0.3254,9.7159,-0.009,-0.0068,-0.0045
46.94,0.3359,-0.3051,9.7674,0.0013,0.0009,0.0006
46.96,0.5316,-0.1642,9.8925,0.0234,0.0175,0.0117
46.98,0.3471,-0.2582,9.6219,-0.0096,-0.0072,-0.0048
47.0,0.3632,-0.3453,9.5179,-0.0328,-0.0246,-0.0164
47.02,0.3532,-0.3436,9.7502,-0.0199,-0.015,-0.01
47.04,0.4569,-0.1544,9.9349,0.0203,0.0152,0.0102
47.06,0.5054,-0.3247,9.7633,-0.0085,-0.0064,-0.0042
47.08,0.5239,-0.2248,9.7987,0.0013,0.001,0.0007
47.1,0.5194,-0.057,9.9771,0.0232,0.0174,0.0116
47.12,0.5524,-0.1573,9.9366,0.0279,0.021,0.014
47.14,0.3148,-0.2509,9.7004,-0.0071,-0.0053,-0.0036
47.16,0.3335,-0.2411,9.6909,-0.0079,-0.0059,-0.0039
47.18,0.4458,-0.1033,9.852,-0.0013,-0.001,-0.0007
47.2,0.3347,-0.3369,9.5976,-0.0229,-0.0172,-0.0115
47.22,0.4854,-0.2589,9.9554,0.0158,0.0118,0.0079
47.24,0.4507,-0.3073,9.8411,-0.0047,-0.0035,-0.0024
47.26,0.3534,-0.1884,9.739,-0.0057,-0.0043,-0.0029
47.28,0.5156,-0.1048,9.8101,-0.0,-0.0,-0.0
47.3,0.6395,0.0092,10.073,0.0515,0.0386,0.0258
47.32,0.3457,-0.3856,9.6219,-0.0214,-0.016,-0.0107
47.34,0.4511,-0.2359,9.635,-0.0132,-0.0099,-0.0066
47.36,0.5456,-0.1143,9.894,0.0154,0.0115,0.0077
47.38,0.3063,-0.3435,9.7264,-0.0127,-0.0095,-0.0064
47.4,0.3145,-0.2399,9.5983,-0.0313,-0.0235,-0.0156
47.42,0.4217,-0.3479,9.6584,-0.0111,-0.0083,-0.0056
47.44,0.1676,-0.4494,9.4751,-0.0403,-0.0302,-0.0202
47.46,0.3986,-0.2186,9.697,-0.0177,-0.0133,-0.0089
47.48,0.4964,-0.1752,9.6683,-0.0019,-0.0014,-0.0009
47.5,0.7392,0.0501,10.1005,0.0558,0.0418,0.0279
47.52,0.4195,-0.1807,9.7949,0.0073,0.0055,0.0037
47.54,0.4728,-0.225,9.7888,0.0038,0.0028,0.0019
47.56,0.305,-0.354,9.5597,-0.0253,-0.019,-0.0126
47.58,0.4324,-0.1708,9.8407,0.0163,0.0122,0.0082
47.6,0.4445,-0.2324,9.7865,-0.0058,-0.0043,-0.0029
47.62,0.4049,-0.3268,9.5672,-0.0323,-0.0243,-0.0162
47.64,0.4568,-0.2808,9.7299,-0.0047,-0.0035,-0.0024
47.66,0.2561,-0.4262,9.575,-0.0391,-0.0293,-0.0195
47.68,0.3716,-0.2597,9.7339,-0.006,-0.0045,-0.003
47.7,0.2845,-0.3765,9.6296,-0.0292,-0.0219,-0.0146
47.72,0.213,-0.2592,9.592,-0.03,-0.0225,-0.015
47.74,0.3531,-0.3029,9.6677,-0.0158,-0.0119,-0.0079
47.76,0.6401,-0.0796,9.8625,0.0247,0.0185,0.0123
47.78,0.4528,-0.1478,9.8206,0.0128,0.0096,0.0064
47.8,0.6773,-0.0945,9.9486,0.0228,0.0171,0.0114
47.82,0.3825,-0.2294,9.7839,-0.0116,-0.0087,-0.0058
47.84,0.397,-0.3245,9.7657,0.0022,0.0017,0.0011
47.86,0.4778,-0.1096,9.8318,0.0107,0.008,0.0053
47.88,0.3144,-0.3541,9.6922,-0.0317,-0.0238,-0.0159
47.9,0.3672,-0.2233,9.606,-0.023,-0.0172,-0.0115
47.92,0.5127,-0.4419,9.9039,-0.0031,-0.0023,-0.0015
47.94,0.5169,-0.1098,9.8208,0.0047,0.0035,0.0023
47.96,0.5384,-0.0952,9.927,0.0294,0.0221,0.0147
47.98,0.327,-0.3019,9.716,-0.0143,-0.0107,-0.0071
